#timestamp [ns],w_RS_S_x [rad s^-1],w_RS_S_y [rad s^-1],w_RS_S_z [rad s^-1],a_RS_S_x [m s^-2],a_RS_S_y [m s^-2],a_RS_S_z [m s^-2]
1560244286269015296,-0.005303556449696771,9.552009991239174e-06,-0.0017628160583990392,0.05515168466022513,-9.92973878677005,0.4560627438453192
1560244286274021888,-0.005303556449696771,9.552009991239174e-06,-0.0017628160583990392,0.054025461254753444,-9.96438743265017,0.4906107585412017
1560244286279028992,-0.005303556449696771,9.552009991239174e-06,-0.0017628160583990392,0.054025461254753444,-9.96438743265017,0.4906107585412017
1560244286284035584,-0.005303556449696771,9.552009991239174e-06,-0.0017628160583990392,0.054025461254753444,-9.96438743265017,0.4906107585412017
1560244286289042432,-0.005303556449696771,9.552009991239174e-06,-0.0017628160583990392,0.05385531316784268,-9.961747494424745,0.49587809444979414
1560244286294049280,-0.0035582272112224017,0.0017548812284567247,-0.0017628160583990392,0.053018323281422905,-9.94876115037838,0.5217890932974028
1560244286299056128,-0.0035582272112224017,9.552009991239174e-06,-0.0017628160583990392,0.08610959621302924,-9.927475569611792,0.5131543852394199
1560244286304062976,-0.0018128979727480327,9.552009991239174e-06,-1.7486776268924586e-05,0.07415329730100766,-9.903413489450504,0.5485558549386285
1560244286309069824,-0.0018128979727480327,0.0017548812284567247,-0.0035081451804580867,0.09372171649923974,-9.91096826831357,0.5067527869407883
1560244286314076672,-0.0018128979727480327,9.552009991239174e-06,-0.0017628160583990392,0.06878937753320188,-9.936943442718372,0.4697169282596597
1560244286319083520,-0.005303556449696771,-0.0017357772484920134,-0.0017628160583990392,0.07215775147993071,-9.906340922151939,0.5071463922416576
1560244286324090368,-0.005303556449696771,-0.0017357772484920134,-0.0035081451804580867,0.061936341991920496,-9.93987651102233,0.5021700988836018
1560244286329096192,-0.005303556449696771,9.552009991239174e-06,-1.7486776268924586e-05,0.08585278140423204,-9.933563973810786,0.44937245149619465
1560244286334104064,-0.00704888568817114,0.0017548812284567247,-1.7486776268924586e-05,0.0756327546561188,-9.944059403216963,0.4443499134281981
1560244286339109888,-0.005303556449696771,9.552009991239174e-06,-1.7486776268924586e-05,0.056166789801132565,-9.964387197338416,0.44922450202142467
1560244286344117760,-0.0018128979727480327,-0.0034811063705510606,-1.7486776268924586e-05,0.07592170057206137,-9.957913024203553,0.43534881347251086
1560244286349124352,-6.756874882557895e-05,9.552009991239174e-06,-1.7486776268924586e-05,0.08748984925805797,-9.919814321945692,0.4486427309637536
1560244286354130176,-0.0035582272112224017,0.0035002105833464156,-1.7486776268924586e-05,0.06098541300125709,-9.938947336787136,0.4321290487086835
1560244286359138304,-0.0035582272112224017,0.0017548812284567247,-1.7486776268924586e-05,0.08946268673427868,-9.940954558164897,0.44854633034092684
1560244286364143872,-0.0035582272112224017,9.552009991239174e-06,-0.0017628160583990392,0.07267861745098891,-9.923737818499776,0.44930530370198396
1560244286369150720,-0.0035582272112224017,0.0035002105833464156,-0.0017628160583990392,0.08134015743418611,-9.952541399382946,0.4489062151764728
1560244286374158336,-0.005303556449696771,0.0035002105833464156,-1.7486776268924586e-05,0.034427083995601196,-9.944326672228064,0.4909794452344144
1560244286379164160,-0.0035582272112224017,9.552009991239174e-06,-1.7486776268924586e-05,0.06019400776818034,-9.94944751509695,0.4647339618886386
1560244286384172288,-0.0035582272112224017,9.552009991239174e-06,-1.7486776268924586e-05,0.07583388053427367,-9.942289540757951,0.43815424681808945
1560244286389178112,-0.0035582272112224017,0.005245539588990141,-1.7486776268924586e-05,0.059597569742021086,-9.940431497033574,0.4296433479714515
1560244286394185728,-6.756874882557895e-05,0.005245539588990141,-1.7486776268924586e-05,0.09294887277116916,-9.923733465027533,0.468638697897762
1560244286399191552,-0.0018128979727480327,0.005245539588990141,-1.7486776268924586e-05,0.0596228343675749,-9.908392536315763,0.47013857867613346
1560244286404198400,-0.0035582272112224017,9.552009991239174e-06,-1.7486776268924586e-05,0.06139155396222412,-9.909743512908578,0.4567865267000448
1560244286409205504,-0.005303556449696771,9.552009991239174e-06,-1.7486776268924586e-05,0.07548375580185754,-9.90475749722751,0.4491866896856193
1560244286414212352,-0.0035582272112224017,9.552009991239174e-06,-1.7486776268924586e-05,0.05389377209044631,-9.923740952699603,0.49492209433062123
1560244286419218944,-0.005303556449696771,0.0017548812284567247,-1.7486776268924586e-05,0.06388962681360935,-9.923738514486521,0.4905804862574342
1560244286424225792,-0.005303556449696771,9.552009991239174e-06,-1.7486776268924586e-05,0.07583005935774617,-9.939353470355067,0.43828979843722277
1560244286429232640,-0.0018128979727480327,9.552009991239174e-06,-1.7486776268924586e-05,0.05603757919245228,-9.905317843126241,0.4288698326307605
1560244286434239488,-0.005303556449696771,0.0017548812284567247,-0.0017628160583990392,0.05011604777203038,-9.93746155548805,0.40982736277663945
1560244286439246336,-0.005303556449696771,0.0035002105833464156,-1.7486776268924586e-05,0.06080729037220611,-9.935995176028463,0.4093485752590485
1560244286444253184,-0.0035582272112224017,9.552009991239174e-06,-1.7486776268924586e-05,0.07736560485459762,-9.961965927734244,0.39076137185686066
1560244286449260032,-0.0035582272112224017,9.552009991239174e-06,-1.7486776268924586e-05,0.0571003947392906,-9.964386834412982,0.39570960044460207
1560244286454266624,-0.0035582272112224017,0.0017548812284567247,-1.7486776268924586e-05,0.047480870268142766,-9.955501434503871,0.42132952081460445
1560244286459273216,-0.0035582272112224017,0.0035002105833464156,-1.7486776268924586e-05,0.05045339073619262,-9.95860324211464,0.4242850149979222
1560244286464280320,-0.0035582272112224017,0.0035002105833464156,-0.0017628160583990392,0.055999697568583945,-9.944193089748234,0.4298032505913135
1560244286469287168,-0.005303556449696771,0.0035002105833464156,-0.0035081451804580867,0.06290154411984832,-9.958864328575046,0.38525834300423384
1560244286474294016,-0.0035582272112224017,9.552009991239174e-06,-0.0017628160583990392,0.06542276573051885,-9.944061568976958,0.41824933050002266
1560244286479300864,-0.0035582272112224017,9.552009991239174e-06,-1.7486776268924586e-05,0.0572036211091858,-9.927232588551266,0.3927494785953771
1560244286484307456,-0.0018128979727480327,0.0035002105833464156,-0.0017628160583990392,0.07450358069215562,-9.962219983323925,0.41303457794049964
1560244286489314560,-0.0035582272112224017,0.0017548812284567247,-1.7486776268924586e-05,0.05559561580406214,-9.94406351202482,0.4422750462847171
1560244286494321408,-0.0035582272112224017,9.552009991239174e-06,-0.0017628160583990392,0.05556424236476064,-9.94406353637865,0.44324331149743856
1560244286499328256,-0.0018128979727480327,9.552009991239174e-06,-0.0017628160583990392,0.05657583039907335,-9.963193502393098,0.4119062051608797
1560244286504334848,-0.0035582272112224017,9.552009991239174e-06,-1.7486776268924586e-05,0.054978701073474724,-9.923740530244444,0.46143821043078936
1560244286509341696,-0.005303556449696771,9.552009991239174e-06,-0.0017628160583990392,0.05600347374285492,-9.923740492413518,0.4298107283829762
1560244286514348800,-0.005303556449696771,9.552009991239174e-06,-0.0017628160583990392,0.07112971016966131,-9.923737638962333,0.4448531894042212
1560244286519355648,-0.005303556449696771,9.552009991239174e-06,-1.7486776268924586e-05,0.07617278002967896,-9.925967939094427,0.42779425566637763
1560244286524362240,-0.0035582272112224017,9.552009991239174e-06,-0.0017628160583990392,0.07678766381763359,-9.95761065612484,0.40862400029416185
1560244286529369088,-0.0035582272112224017,9.552009991239174e-06,-0.0035081451804580867,0.07679015583210332,-9.944059475958351,0.40862895915611386
1560244286534375936,-0.0035582272112224017,9.552009991239174e-06,-0.0017628160583990392,0.05829103361974099,-9.925976582391549,0.4274796894419471
1560244286539382784,-0.005303556449696771,0.0017548812284567247,-1.7486776268924586e-05,0.07799647063405653,-9.927154910524873,0.37150238256109286
1560244286544389632,-0.005303556449696771,9.552009991239174e-06,-1.7486776268924586e-05,0.06875122287061983,-9.934985408319266,0.37971138443712077
1560244286549396224,-0.005303556449696771,0.0017548812284567247,-0.0017628160583990392,0.07208988670709224,-9.923737272091502,0.38303358744332283
1560244286554403072,-0.0035582272112224017,0.0035002105833464156,-0.0017628160583990392,0.057366004643996216,-9.96427300815233,0.3892500993783341
1560244286559409920,-0.0035582272112224017,9.552009991239174e-06,-1.7486776268924586e-05,0.07745078865371675,-9.923736260859219,0.3883647985025884
1560244286564416768,-0.005303556449696771,9.552009991239174e-06,-0.0017628160583990392,0.07781370715009664,-9.946454714041963,0.37702591136111
1560244286569423616,-0.005303556449696771,0.0017548812284567247,-1.7486776268924586e-05,0.06070235132948203,-9.947375866543593,0.3858066402982051
1560244286574430464,-0.0035582272112224017,0.0035002105833464156,-1.7486776268924586e-05,0.07737490977281197,-9.926070542123572,0.39069229689891216
1560244286579437312,-0.0018128979727480327,0.0017548812284567247,-1.7486776268924586e-05,0.07730793327381984,-9.936071975094066,0.39269783300471967
1560244286584444160,-0.0018128979727480327,0.0017548812284567247,-0.0017628160583990392,0.07766175088156023,-9.951015112794021,0.3816880697085796
1560244286589450752,-0.0018128979727480327,9.552009991239174e-06,-0.0035081451804580867,0.07807026110986613,-9.94509124050194,0.36911545335235846
1560244286594457856,-0.0035582272112224017,9.552009991239174e-06,-0.0017628160583990392,0.07235759378502987,-9.955137851873598,0.4042189137898485
1560244286599464704,-0.0035582272112224017,0.0017548812284567247,-1.7486776268924586e-05,0.06716516718636284,-9.923738586650739,0.3990609765494771
1560244286604471552,-0.0018128979727480327,0.0017548812284567247,-1.7486776268924586e-05,0.06101645517966739,-9.907811441899392,0.4093497508053917
1560244286609478144,-0.0018128979727480327,0.0035002105833464156,-1.7486776268924586e-05,0.09502702472227108,-9.922477661156258,0.4280615891340447
1560244286614484992,-0.0035582272112224017,0.005245539588990141,-0.0017628160583990392,0.07591492687179971,-9.917236036835813,0.4358042100343587
1560244286619492096,-0.005303556449696771,0.0017548812284567247,-0.0017628160583990392,0.0638383238845224,-9.944062081527562,0.42465868539103974
1560244286624498944,-0.0035582272112224017,0.0017548812284567247,-0.0017628160583990392,0.0735313840745641,-9.94405995182337,0.4450752559644147
1560244286629505536,-0.0035582272112224017,0.0035002105833464156,-1.7486776268924586e-05,0.09393861192692118,-9.944056405818271,0.3911639230774861
1560244286634512384,-0.0035582272112224017,0.0035002105833464156,-0.0017628160583990392,0.0767918701011181,-9.93484729103887,0.40863234059629283
1560244286639518976,-0.0035582272112224017,0.0035002105833464156,-0.0017628160583990392,0.061588348171653894,-9.923739492542317,0.4241227427486568
1560244286644525824,-6.756874882557895e-05,0.0035002105833464156,-1.7486776268924586e-05,0.07704344519794179,-9.944059044764998,0.38857507472327957
1560244286649532672,-0.0018128979727480327,0.0035002105833464156,-1.7486776268924586e-05,0.04812442924256899,-9.949920799557587,0.4099119888235622
1560244286654539520,-0.005303556449696771,0.0017548812284567247,-1.7486776268924586e-05,0.06538831117337282,-9.952877678712927,0.4091368575562187
1560244286659546368,-0.005303556449696771,0.0017548812284567247,-1.7486776268924586e-05,0.07477158969470568,-9.92689710041431,0.37453756693803264
1560244286664553216,-0.0018128979727480327,0.0035002105833464156,-1.7486776268924586e-05,0.06027743407655236,-9.961890776420775,0.3738485512287004
1560244286669560064,-0.0018128979727480327,0.0017548812284567247,-1.7486776268924586e-05,0.06924292709771572,-9.944060745097865,0.39273219807977955
1560244286674566912,-0.0035582272112224017,9.552009991239174e-06,-1.7486776268924586e-05,0.07120428888334773,-9.930253965472156,0.38215170841131585
1560244286679572736,-0.0035582272112224017,9.552009991239174e-06,-1.7486776268924586e-05,0.05754258905044903,-9.943197505400004,0.40862971865663256
1560244286684580608,-0.0018128979727480327,0.0017548812284567247,-1.7486776268924586e-05,0.06024498265869934,-9.95959142824916,0.44507368098709443
1560244286689587456,-0.0035582272112224017,0.0017548812284567247,-0.0017628160583990392,0.08648320902765265,-9.944057363252453,0.4284365806331843
1560244286694593280,-0.0035582272112224017,9.552009991239174e-06,-1.7486776268924586e-05,0.0803220889779096,-9.944058346401857,0.4287128138354468
1560244286699601152,-0.0035582272112224017,9.552009991239174e-06,-1.7486776268924586e-05,0.07420504570517633,-9.92230992006355,0.4449728810338139
1560244286704608000,-0.005303556449696771,9.552009991239174e-06,-1.7486776268924586e-05,0.06341425139383997,-9.910491481392626,0.4171876023108061
1560244286709613824,-0.005303556449696771,9.552009991239174e-06,-1.7486776268924586e-05,0.07564583044138537,-9.923736326908832,0.44407105272052694
1560244286714621440,-0.005303556449696771,9.552009991239174e-06,-0.0017628160583990392,0.07614049752575872,-9.905358933707188,0.42891479177456515
1560244286719628288,-0.0035582272112224017,0.0035002105833464156,-1.7486776268924586e-05,0.08761023182184952,-9.956971056573261,0.46886562503682244
1560244286724635392,-0.0035582272112224017,0.0035002105833464156,-1.7486776268924586e-05,0.054689816434295664,-9.923740540909026,0.47035403538643605
1560244286729642240,-0.0018128979727480327,9.552009991239174e-06,-0.0017628160583990392,0.04030083442185329,-9.938754273895546,0.4560419907989034
1560244286734647808,-0.0035582272112224017,9.552009991239174e-06,-1.7486776268924586e-05,0.0754872751904652,-9.94372799960279,0.4488417036608409
1560244286739655424,-0.0018128979727480327,9.552009991239174e-06,-1.7486776268924586e-05,0.07574662762935722,-9.94170573001412,0.4408507763680354
1560244286744662272,-0.0035582272112224017,9.552009991239174e-06,-1.7486776268924586e-05,0.06366447328519143,-9.949791773136871,0.4583493988540802
1560244286749669120,-0.005303556449696771,9.552009991239174e-06,-1.7486776268924586e-05,0.0719187851359688,-9.923737049837758,0.46656272227604373
1560244286754675200,-0.0035582272112224017,9.552009991239174e-06,-0.0017628160583990392,0.060221928517799936,-9.946676909532448,0.3793032163747067
1560244286759682048,-0.0035582272112224017,9.552009991239174e-06,-1.7486776268924586e-05,0.07627726380960316,-9.947851284841919,0.42443626922522515
1560244286764689664,-0.0018128979727480327,9.552009991239174e-06,-1.7486776268924586e-05,0.07699821175054596,-9.937658998953847,0.40224708042059815
1560244286769695488,-0.005303556449696771,9.552009991239174e-06,-1.7486776268924586e-05,0.07679379656237012,-9.924494821770233,0.40863614059117376
1560244286774703360,-0.005303556449696771,0.0035002105833464156,-1.7486776268924586e-05,0.0865715083100404,-9.923734877662042,0.42844021848935393
1560244286779710208,-0.005303556449696771,0.0035002105833464156,-1.7486776268924586e-05,0.0661079271174631,-9.934283934646098,0.4398573317190102
1560244286784716032,-6.756874882557895e-05,0.0035002105833464156,-1.7486776268924586e-05,0.09256292676735599,-9.96025104122758,0.4161417424964711
1560244286789722880,-0.00704888568817114,0.0017548812284567247,-0.0017628160583990392,0.03520925726804797,-9.944066920738901,0.45097763814469116
1560244286794730752,-0.00704888568817114,0.0017548812284567247,-0.0017628160583990392,0.04943856486645687,-9.93688351061705,0.4503423449081711
1560244286799736576,-0.005303556449696771,9.552009991239174e-06,-1.7486776268924586e-05,0.07506321138576937,-9.936567493061107,0.46197372883593246
1560244286804743168,-0.0035582272112224017,-0.0017357772484920134,-1.7486776268924586e-05,0.05710768525581594,-9.944063287332744,0.4518300058001904
1560244286809750272,-0.005303556449696771,9.552009991239174e-06,-1.7486776268924586e-05,0.05859298649847708,-9.91485857896934,0.46638369146303066
1560244286814757120,-0.0018128979727480327,-0.0017357772484920134,-0.0017628160583990392,0.07486453408310122,-9.945455488931755,0.46805148969360766
1560244286819763712,-0.0018128979727480327,9.552009991239174e-06,-1.7486776268924586e-05,0.07465523452923578,-9.923736487649274,0.4746435491493919
1560244286824770560,-0.005303556449696771,0.005245539588990141,-0.0017628160583990392,0.07591423424753269,-9.884426013891847,0.44961842125757956
1560244286829777152,-0.008794214926645508,0.0035002105833464156,-1.7486776268924586e-05,0.08931007861616912,-9.937961719488735,0.456654632682476
1560244286834785280,-0.005303556449696771,9.552009991239174e-06,-1.7486776268924586e-05,0.07499964417436264,-9.911983026304902,0.4640845786761426
1560244286839791104,-0.0035582272112224017,-0.0017357772484920134,-1.7486776268924586e-05,0.07528878075514846,-9.938218052402243,0.4550012065435457
1560244286844797952,-0.0035582272112224017,9.552009991239174e-06,-1.7486776268924586e-05,0.038662451463658286,-9.946800112373035,0.4278564784859292
1560244286849804544,-0.00704888568817114,0.0035002105833464156,-1.7486776268924586e-05,0.056386352830336633,-9.93922482864813,0.417899644266333
1560244286854811392,-0.00704888568817114,0.0017548812284567247,-1.7486776268924586e-05,0.06945723653450932,-9.931494429061312,0.44318860941258925
1560244286859818496,-0.0035582272112224017,9.552009991239174e-06,-1.7486776268924586e-05,0.057239226539657,-9.963754024747816,0.41075943739615783
1560244286864825344,-0.005303556449696771,9.552009991239174e-06,-1.7486776268924586e-05,0.07115812787448796,-9.949081293850513,0.4291217910273559
1560244286869832960,-0.005303556449696771,9.552009991239174e-06,-1.7486776268924586e-05,0.06691822517109325,-9.95370979473547,0.4186778133084147
1560244286874838784,-0.0035582272112224017,9.552009991239174e-06,-1.7486776268924586e-05,0.06061978468583265,-9.944062835956368,0.4093539512367542
1560244286879845632,-0.0035582272112224017,0.0017548812284567247,-1.7486776268924586e-05,0.07678641837929985,-9.964383152613854,0.4086215219952427
1560244286884852736,-0.005303556449696771,0.0035002105833464156,-1.7486776268924586e-05,0.0693165990619408,-9.949775341565704,0.41623736017233337
1560244286889859328,-0.0035582272112224017,0.0017548812284567247,-1.7486776268924586e-05,0.05641972411978849,-9.936693991575371,0.41688532493086355
1560244286894866176,-0.0035582272112224017,9.552009991239174e-06,-1.7486776268924586e-05,0.07448552029975558,-9.962667175435058,0.4272585027217573
1560244286899873024,-0.0035582272112224017,0.0017548812284567247,-0.0035081451804580867,0.06420662173691365,-9.919802871740956,0.41704434141722097
1560244286904879872,-0.0035582272112224017,9.552009991239174e-06,-1.7486776268924586e-05,0.08642921614747001,-9.912997843630771,0.43914513456010124
1560244286909886720,-0.0035582272112224017,9.552009991239174e-06,-1.7486776268924586e-05,0.07563893439875809,-9.954216529742629,0.4440981895658054
1560244286914893312,-0.0035582272112224017,9.552009991239174e-06,-1.7486776268924586e-05,0.05470433092226747,-9.944063259422771,0.4697828240698045
1560244286919900160,-0.0018128979727480327,9.552009991239174e-06,-1.7486776268924586e-05,0.06149749136300163,-9.95027628936553,0.44979671448126946
1560244286924907008,-0.0018128979727480327,9.552009991239174e-06,-1.7486776268924586e-05,0.075860651129092,-9.940651690442698,0.437338006565357
1560244286929913856,-0.0018128979727480327,9.552009991239174e-06,-1.7486776268924586e-05,0.058783614403779036,-9.923739914731263,0.42968608203602787
1560244286934920448,-0.005303556449696771,0.0017548812284567247,-1.7486776268924586e-05,0.09344659229362857,-9.944056252083373,0.42812437803972536
1560244286939927552,-0.005303556449696771,9.552009991239174e-06,-1.7486776268924586e-05,0.059300740405002855,-9.935565971721406,0.4296584779043857
1560244286944934400,-0.005303556449696771,9.552009991239174e-06,-1.7486776268924586e-05,0.03541256286960805,-9.923744060157826,0.4448263477276146
1560244286949941248,-0.0035582272112224017,9.552009991239174e-06,-1.7486776268924586e-05,0.05482349889355107,-9.943539429921682,0.450098461568839
1560244286954947840,-0.0018128979727480327,0.0017548812284567247,-0.0017628160583990392,0.04652107875447929,-9.893345824320273,0.4151096457766247
1560244286959954688,-0.0018128979727480327,0.0017548812284567247,-0.0017628160583990392,0.07578883495609623,-9.9237365789725,0.43965713700766174
1560244286964961792,-0.005303556449696771,0.0035002105833464156,-1.7486776268924586e-05,0.0754802813049575,-9.92373681825968,0.44917966526221254
1560244286969968640,-0.005303556449696771,0.0017548812284567247,-1.7486776268924586e-05,0.05768681631737864,-9.906923899799082,0.431487813787581
1560244286974975232,-0.0035582272112224017,9.552009991239174e-06,-0.0017628160583990392,0.07595611403707354,-9.936660997893423,0.43441513530551357
1560244286979982080,-0.0018128979727480327,9.552009991239174e-06,-1.7486776268924586e-05,0.0634430993290818,-9.923739160482521,0.42223374809475983
1560244286984988928,-0.0018128979727480327,0.0035002105833464156,-1.7486776268924586e-05,0.03807941516598733,-9.942442790413136,0.4119825091719263
1560244286989996032,-0.0035582272112224017,9.552009991239174e-06,-0.0017628160583990392,0.07240817673192482,-9.923737128271862,0.42105374728960765
1560244286995002624,-0.005303556449696771,-0.005226435841856073,-1.7486776268924586e-05,0.05668817877889453,-9.943090351591593,0.4085611762799185
1560244287000009472,-0.0018128979727480327,-0.0034811063705510606,-1.7486776268924586e-05,0.05648846908830444,-9.97971367736519,0.41450227226833963
1560244287005016064,-0.005303556449696771,0.0017548812284567247,-0.0017628160583990392,0.07674761729122112,-9.944059477528722,0.4099418229534138
1560244287010022912,-0.005303556449696771,9.552009991239174e-06,0.0017278424185496989,0.0694287934772664,-9.931435054718051,0.4431603346022078
1560244287015029760,-0.005303556449696771,9.552009991239174e-06,-1.7486776268924586e-05,0.06786098656573823,-9.90341532356921,0.4292867178843593
1560244287020036608,-0.005303556449696771,0.0017548812284567247,-1.7486776268924586e-05,0.059251299109966384,-9.92103732191273,0.4121162270741977
1560244287025043456,-0.00704888568817114,0.0035002105833464156,-0.0017628160583990392,0.07208628325117289,-9.944059663878381,0.4636865248326138
1560244287030050304,-0.008794214926645508,0.0017548812284567247,-1.7486776268924586e-05,0.06452622949897566,-9.935456462076193,0.42942423343747566
1560244287035057152,-0.005303556449696771,9.552009991239174e-06,-1.7486776268924586e-05,0.09071901945319065,-9.923734379120205,0.414056901811543
1560244287040063744,-0.0035582272112224017,9.552009991239174e-06,-1.7486776268924586e-05,0.07720680003466938,-9.943638931183926,0.40861043679047954
1560244287045070848,-0.0035582272112224017,0.0017548812284567247,-1.7486776268924586e-05,0.05714415225745371,-9.944063281321757,0.3944827706863116
1560244287050077696,-0.005303556449696771,9.552009991239174e-06,-1.7486776268924586e-05,0.056656542526905836,-9.944063659467817,0.40953164160346817
1560244287055084544,-0.008794214926645508,9.552009991239174e-06,-1.7486776268924586e-05,0.056656542526905836,-9.944063659467817,0.40953164160346817
1560244287060091136,-0.005303556449696771,9.552009991239174e-06,-0.0017628160583990392,0.07613713233267645,-9.92373630886357,0.4289080449219559
1560244287065097984,-0.0018128979727480327,9.552009991239174e-06,-1.7486776268924586e-05,0.06867996679988596,-9.931263641046776,0.4292395698052047
1560244287070105088,-0.0018128979727480327,9.552009991239174e-06,-1.7486776268924586e-05,0.05642809491949105,-9.93088447802463,0.41666220204326637
1560244287075111936,-0.0035582272112224017,9.552009991239174e-06,-1.7486776268924586e-05,0.07470647610620407,-9.923736650035181,0.42748531179693355
1560244287080118784,-0.0035582272112224017,9.552009991239174e-06,-1.7486776268924586e-05,0.0565251883907996,-9.927897438966877,0.4136836907088489
1560244287085125376,-0.005303556449696771,9.552009991239174e-06,-1.7486776268924586e-05,0.06508388221805812,-9.944061202409996,0.44893732321964563
1560244287090132224,-0.0035582272112224017,9.552009991239174e-06,-1.7486776268924586e-05,0.061004734148910264,-9.944062559163918,0.4238744221771827
1560244287095139328,-0.0018128979727480327,9.552009991239174e-06,-1.7486776268924586e-05,0.05818497622857915,-9.944847652969615,0.41024397285612024
1560244287100145920,-6.756874882557895e-05,9.552009991239174e-06,-0.0017628160583990392,0.08351180941518914,-9.957945330348409,0.42856458353584304
1560244287105152512,-6.756874882557895e-05,0.0035002105833464156,-1.7486776268924586e-05,0.06836290078916374,-9.944060984797378,0.4172118273555163
1560244287110159360,-0.0018128979727480327,0.005245539588990141,-1.7486776268924586e-05,0.05921774191962816,-9.961798107122695,0.4094101745804598
1560244287115166208,-0.0035582272112224017,0.005245539588990141,-1.7486776268924586e-05,0.05580536987171265,-9.9237404997268,0.4359247933023149
1560244287120173056,-0.005303556449696771,0.0017548812284567247,-1.7486776268924586e-05,0.046902451417472846,-9.923742095392939,0.4446669433578686
1560244287125179904,-0.0018128979727480327,9.552009991239174e-06,-1.7486776268924586e-05,0.0645247438357176,-9.938104790664449,0.42349038679137474
1560244287130186752,-0.0035582272112224017,0.0017548812284567247,-1.7486776268924586e-05,0.07549013714671104,-9.924043512396175,0.44887362227953953
1560244287135193600,-0.005303556449696771,9.552009991239174e-06,-0.0017628160583990392,0.07101221014872874,-9.92373753101459,0.4238115050129641
1560244287140200448,-0.005303556449696771,9.552009991239174e-06,-0.0035081451804580867,0.06684338259786225,-9.923738716032055,0.4309877399792747
1560244287145207040,-0.0035582272112224017,9.552009991239174e-06,-0.0035081451804580867,0.06059446633784052,-9.95703820388932,0.40008607638353527
1560244287150214144,-0.0035582272112224017,0.0017548812284567247,-0.0035081451804580867,0.05521844788940189,-9.925718491478838,0.454026687006903
1560244287155220992,-0.0018128979727480327,0.005245539588990141,-0.0017628160583990392,0.06232456921940595,-9.936436479370428,0.4674632948537817
1560244287160227840,-0.0018128979727480327,9.552009991239174e-06,-1.7486776268924586e-05,0.09014854751747106,-9.923734178617899,0.4018315809252839
1560244287165234688,-0.005303556449696771,9.552009991239174e-06,-1.7486776268924586e-05,0.05946490939779457,-9.961594255689528,0.40800846811503466
1560244287170241280,-0.005303556449696771,0.0035002105833464156,-0.0035081451804580867,0.05652185094513802,-9.92800011405316,0.413786072667152
1560244287175248384,-0.0035582272112224017,0.0035002105833464156,-0.0017628160583990392,0.0560015519143353,-9.934149803905164,0.42980692269301807
1560244287180255232,-0.005303556449696771,0.0017548812284567247,-0.0017628160583990392,0.07142387827360691,-9.923737288225253,0.4291193615322842
1560244287185262080,-0.0035582272112224017,0.0017548812284567247,-0.0035081451804580867,0.07650453332705154,-9.944952093415873,0.39017800866687824
1560244287190268672,-0.0018128979727480327,0.0035002105833464156,-0.0017628160583990392,0.05578448595167113,-9.964387038767947,0.43632228625856134
1560244287195275264,-0.0035582272112224017,0.0017548812284567247,-1.7486776268924586e-05,0.07461041999078594,-9.963922644025098,0.4687583714921091
1560244287198671104,-0.0035582272112224017,9.552009991239174e-06,-1.7486776268924586e-05,0.058871461877784886,-9.92869069268978,0.41683393863626583
1560244287203677184,-0.005303556449696771,0.0035002105833464156,-0.0017628160583990392,0.055900078249979814,-9.926921485218214,0.43298249193323984
1560244287208683008,-0.005303556449696771,0.0035002105833464156,-0.0017628160583990392,0.06466455015238827,-9.94406186873835,0.4320612219310031
1560244287213689344,-0.0018128979727480327,9.552009991239174e-06,-1.7486776268924586e-05,0.07585643363325087,-9.929572808541224,0.4375348533358478
1560244287218695168,-6.756874882557895e-05,9.552009991239174e-06,-1.7486776268924586e-05,0.05617032415650603,-9.964023088195441,0.429969301860337
1560244287223701248,-0.005303556449696771,0.0017548812284567247,-1.7486776268924586e-05,0.0553428847245871,-9.944063708208903,0.45007497889897424
1560244287228707072,-0.005303556449696771,9.552009991239174e-06,-1.7486776268924586e-05,0.05534493734426361,-9.932947447690063,0.4500790264831876
1560244287233713152,-0.0035582272112224017,9.552009991239174e-06,-0.0017628160583990392,0.07303968104104155,-9.923737511011119,0.4158913537475409
1560244287238718976,-0.0035582272112224017,0.0035002105833464156,-0.0017628160583990392,0.0767297214311468,-9.905504295826217,0.41072811044433105
1560244287243725056,-0.0018128979727480327,0.0035002105833464156,-0.0017628160583990392,0.08380328196834314,-9.939217535665527,0.42855853089900076
1560244287248730880,-0.0035582272112224017,0.0017548812284567247,-1.7486776268924586e-05,0.07016743640172896,-9.924206135095226,0.41583594364093895
1560244287253736960,-0.0035582272112224017,0.0017548812284567247,-1.7486776268924586e-05,0.07367138010534326,-9.960538600122112,0.4656600728336951
1560244287258742784,-0.005303556449696771,0.0035002105833464156,-1.7486776268924586e-05,0.05571909360203878,-9.93533050609628,0.4385172498090905
1560244287263748864,-0.0035582272112224017,0.0017548812284567247,-1.7486776268924586e-05,0.0652576374834157,-9.9334624144685,0.44992513112972926
1560244287268754944,-0.0018128979727480327,9.552009991239174e-06,-1.7486776268924586e-05,0.060106536220212774,-9.948720167638525,0.44522078941664767
1560244287273760768,-0.0018128979727480327,9.552009991239174e-06,-1.7486776268924586e-05,0.05698503555237696,-9.92374028845591,0.4297667205039575
1560244287278766848,-0.005303556449696771,0.0035002105833464156,-1.7486776268924586e-05,0.07592129044056307,-9.930376297986435,0.43552875944438635
1560244287283772672,-0.005303556449696771,0.0035002105833464156,-1.7486776268924586e-05,0.06370033896712592,-9.944061745776839,0.4374612907126661
1560244287288778752,-0.0035582272112224017,0.0017548812284567247,-1.7486776268924586e-05,0.05657942703808708,-9.944063605327528,0.41191167969182785
1560244287293784576,-0.0035582272112224017,0.0035002105833464156,-0.0017628160583990392,0.05978313770842113,-9.947326082256351,0.41264032900338377
1560244287298790656,-0.0035582272112224017,0.0035002105833464156,-0.0017628160583990392,0.07612961259221902,-9.964382691467673,0.42889317836639973
1560244287303796480,-0.0035582272112224017,0.0035002105833464156,-1.7486776268924586e-05,0.06123315342105684,-9.949821433609234,0.4440727597230466
1560244287308802816,-0.0035582272112224017,9.552009991239174e-06,-1.7486776268924586e-05,0.07667904458550333,-9.923845642473216,0.4088583660908633
1560244287313808640,-0.0035582272112224017,9.552009991239174e-06,-1.7486776268924586e-05,0.07094536455363318,-9.938521334489076,0.41992778517207807
1560244287318814720,-0.0035582272112224017,0.0035002105833464156,-1.7486776268924586e-05,0.055346637316251175,-9.923741002041712,0.45008237867739037
1560244287323820544,-0.005303556449696771,0.0035002105833464156,-1.7486776268924586e-05,0.03921041782626125,-9.923743241557364,0.43403549530432073
1560244287328826624,-0.005303556449696771,0.0017548812284567247,-1.7486776268924586e-05,0.09124709610421572,-9.925902678195754,0.4506317205283167
1560244287333832448,-0.005303556449696771,0.0017548812284567247,-0.0017628160583990392,0.06293471944200543,-9.944061619039541,0.45440640350479344
1560244287338838528,-0.005303556449696771,0.005245539588990141,-0.0017628160583990392,0.06322784595821149,-9.944062092401882,0.41606656292915073
1560244287343844352,-0.0035582272112224017,0.0035002105833464156,-0.0017628160583990392,0.056667143627827515,-9.886720061099409,0.4095526408648713
1560244287348850432,-6.756874882557895e-05,-0.0017357772484920134,-1.7486776268924586e-05,0.0798804049458528,-9.939614389255722,0.4489764791485082
1560244287353856512,-0.0035582272112224017,9.552009991239174e-06,-1.7486776268924586e-05,0.09561203110819153,-9.933823216832613,0.4482733025091632
1560244287358862592,-0.005303556449696771,9.552009991239174e-06,-1.7486776268924586e-05,0.049330873133205756,-9.944064134898731,0.4346643643412181
1560244287363868416,-0.005303556449696771,0.0017548812284567247,-0.0017628160583990392,0.0566219540657533,-9.944063635184378,0.410599155487148
1560244287368874240,-0.005303556449696771,9.552009991239174e-06,-0.0017628160583990392,0.06266149385695521,-9.944061814099937,0.42950462054934596
1560244287373880320,-0.0035582272112224017,0.0017548812284567247,-1.7486776268924586e-05,0.07573334661711711,-9.944059325169102,0.4412454597988808
1560244287378886144,-0.0018128979727480327,0.0035002105833464156,-1.7486776268924586e-05,0.04093038338715839,-9.944066040865382,0.41481739999084166
1560244287383892224,-0.0035582272112224017,0.0017548812284567247,-1.7486776268924586e-05,0.059869666440510345,-9.964386569011385,0.41272328124292645
1560244287388898048,-0.005303556449696771,9.552009991239174e-06,-1.7486776268924586e-05,0.06749769723703486,-9.955375782760738,0.4203107028798245
1560244287393904128,-0.005303556449696771,9.552009991239174e-06,-1.7486776268924586e-05,0.055240764317154696,-9.914748198542505,0.4534046211349594
1560244287398909952,-0.005303556449696771,9.552009991239174e-06,-1.7486776268924586e-05,0.07545759598389619,-9.984661365157589,0.4491689577027443
1560244287403916288,-0.005303556449696771,9.552009991239174e-06,-1.7486776268924586e-05,0.06206473181958592,-9.92373966473865,0.4149135786147551
1560244287408922112,-0.0035582272112224017,9.552009991239174e-06,-1.7486776268924586e-05,0.06495036303245114,-9.935028337746317,0.42940537763770176
1560244287413928192,-0.0035582272112224017,9.552009991239174e-06,-1.7486776268924586e-05,0.07278714247579096,-9.94405971011338,0.42905064134023285
1560244287418934016,-0.0035582272112224017,9.552009991239174e-06,-0.0017628160583990392,0.05773634933971416,-9.962115667102594,0.4454365505691698
1560244287423940096,-0.0018128979727480327,0.0017548812284567247,-0.0017628160583990392,0.07653701261083586,-9.92821288098383,0.41653806945281635
1560244287428945920,-0.005303556449696771,0.0017548812284567247,-0.0017628160583990392,0.07657706448884515,-9.916987944973853,0.4153706062629617
1560244287433952000,-0.005303556449696771,9.552009991239174e-06,-1.7486776268924586e-05,0.05712841119824835,-9.923740291013724,0.42866502167687903
1560244287438957824,-0.005303556449696771,0.0017548812284567247,-1.7486776268924586e-05,0.07649539726126942,-9.948606776571912,0.4176986016530746
1560244287443963904,-0.0035582272112224017,0.0017548812284567247,-1.7486776268924586e-05,0.07547463535205438,-9.954189817846212,0.44916857422160994
1560244287448969984,-0.0035582272112224017,0.0017548812284567247,-1.7486776268924586e-05,0.09116873492992036,-9.959900334042839,0.44846277751511665
1560244287453976064,-0.0035582272112224017,9.552009991239174e-06,-1.7486776268924586e-05,0.09506265358916899,-9.963205865390094,0.42921384972796056
1560244287458981888,-0.0035582272112224017,9.552009991239174e-06,-1.7486776268924586e-05,0.0759198875565628,-9.930418680451812,0.4355707026191187
1560244287463987712,-0.0018128979727480327,9.552009991239174e-06,-1.7486776268924586e-05,0.06404017975470781,-9.915884569215992,0.4216299809489402
1560244287468993792,-6.756874882557895e-05,9.552009991239174e-06,-1.7486776268924586e-05,0.05600012780812076,-9.941863273152261,0.4298041026148141
1560244287473999616,-0.0035582272112224017,-0.0017357772484920134,-1.7486776268924586e-05,0.060396112795260644,-9.940613983126616,0.39942776149928527
1560244287479005696,-0.005303556449696771,0.0017548812284567247,-1.7486776268924586e-05,0.06705370804186742,-9.932836265434716,0.43143096081850807
1560244287484011776,-0.005303556449696771,9.552009991239174e-06,-1.7486776268924586e-05,0.07078819331348335,-9.944060289477557,0.42358505232444515
1560244287489017600,-0.0035582272112224017,-0.0034811063705510606,-1.7486776268924586e-05,0.0559248718826722,-9.964315119101279,0.4297990454815695
1560244287494023680,-6.756874882557895e-05,9.552009991239174e-06,-1.7486776268924586e-05,0.04153872032343865,-9.949792749927019,0.4304495043604412
1560244287499029760,-0.0018128979727480327,9.552009991239174e-06,-1.7486776268924586e-05,0.05636783131680371,-9.941634559646419,0.41845673108219705
1560244287504035584,-0.0035582272112224017,0.0017548812284567247,-1.7486776268924586e-05,0.05611009220251258,-9.923740567266888,0.42652013139922546
1560244287509041664,-0.005303556449696771,9.552009991239174e-06,-1.7486776268924586e-05,0.11225076071004059,-9.926081969782802,0.41172896000847253
1560244287514047744,-0.005303556449696771,-0.0017357772484920134,-1.7486776268924586e-05,0.07599388601250857,-9.944059505353772,0.43320417488633034
1560244287519053824,-0.005303556449696771,9.552009991239174e-06,-1.7486776268924586e-05,0.06238145355062042,-9.944062319268246,0.4364732175810495
1560244287524059648,-0.005303556449696771,9.552009991239174e-06,-1.7486776268924586e-05,0.03747371826131661,-9.924766883440194,0.41243659680931216
1560244287529065728,-0.0035582272112224017,9.552009991239174e-06,-1.7486776268924586e-05,0.03470570169069489,-9.923743858898911,0.46664226975721734
1560244287534071552,-0.0035582272112224017,0.0017548812284567247,-1.7486776268924586e-05,0.05623314294298342,-9.934014989729485,0.4295711297050743
1560244287539077632,-0.0018128979727480327,9.552009991239174e-06,-1.7486776268924586e-05,0.07679311911966251,-9.928135281605295,0.4086348043178289
1560244287544083712,-0.0035582272112224017,-0.0017357772484920134,-1.7486776268924586e-05,0.07737224920014545,-9.944058817117115,0.42884506960735097
1560244287549089792,-0.0018128979727480327,9.552009991239174e-06,-1.7486776268924586e-05,0.09626699309019578,-9.944055802023101,0.4279979256516191
1560244287554095616,-0.0018128979727480327,9.552009991239174e-06,-0.0017628160583990392,0.08383402974439685,-9.956605769553578,0.42855066110741546
1560244287559101696,-0.0018128979727480327,9.552009991239174e-06,-0.0017628160583990392,0.058690552365778546,-9.964386850197208,0.4115506972068318
1560244287564107520,-0.0035582272112224017,0.0017548812284567247,-0.0017628160583990392,0.07655870703292104,-9.964383161062704,0.41564936281189524
1560244287569113344,-0.005303556449696771,9.552009991239174e-06,-1.7486776268924586e-05,0.06639258674006972,-9.936872926903824,0.4495822269529361
1560244287574119424,-0.005303556449696771,0.0017548812284567247,-1.7486776268924586e-05,0.0709891055911941,-9.9034152103796,0.4198686310057308
1560244287579125248,-0.005303556449696771,0.0017548812284567247,-0.0017628160583990392,0.05729994600093463,-9.944063153889818,0.38967458491317336
1560244287584131328,-0.0035582272112224017,0.0017548812284567247,-0.0017628160583990392,0.05534502208020441,-9.932488547873385,0.4500791935749583
1560244287589137408,-0.0035582272112224017,0.0035002105833464156,-1.7486776268924586e-05,0.05571793590206293,-9.914855329729264,0.43867702679877385
1560244287594143488,-0.0035582272112224017,0.005245539588990141,-1.7486776268924586e-05,0.07348366047941826,-9.923737362900845,0.41200781225471256
1560244287599149312,-0.005303556449696771,0.0017548812284567247,-1.7486776268924586e-05,0.05476053884910676,-9.961979803361219,0.46793898677929846
1560244287604155392,-0.005303556449696771,0.0017548812284567247,-1.7486776268924586e-05,0.06332553012494939,-9.936005945930187,0.44972006850845514
1560244287609161216,-0.0018128979727480327,0.0035002105833464156,-1.7486776268924586e-05,0.08905668370026366,-9.923734652010726,0.4485709885708048
1560244287614167296,-0.0035582272112224017,0.0035002105833464156,-1.7486776268924586e-05,0.0572564207376782,-9.923740651252272,0.4499967540174438
1560244287619173120,-0.005303556449696771,9.552009991239174e-06,-1.7486776268924586e-05,0.07613335004502249,-9.94405901481217,0.4289006155272709
1560244287624179200,-0.0035582272112224017,9.552009991239174e-06,-1.7486776268924586e-05,0.07646919228871614,-9.933727200522256,0.4185983127332959
1560244287629185024,-0.0018128979727480327,9.552009991239174e-06,-1.7486776268924586e-05,0.07627451395231429,-9.93971626370815,0.424570268932078
1560244287634191360,-0.0018128979727480327,9.552009991239174e-06,-1.7486776268924586e-05,0.05664712691664887,-9.922428272772416,0.45002456636427574
1560244287639197184,-0.0035582272112224017,9.552009991239174e-06,-1.7486776268924586e-05,0.06926081672391064,-9.903415355258803,0.4286595914347719
1560244287644203264,-0.0018128979727480327,9.552009991239174e-06,-0.0017628160583990392,0.05691314815820404,-9.903418054689215,0.40185861577139004
1560244287649209088,-0.0035582272112224017,9.552009991239174e-06,-1.7486776268924586e-05,0.07475059572928888,-9.939940933976196,0.40872194508707804
1560244287654215168,-0.0035582272112224017,0.0017548812284567247,-1.7486776268924586e-05,0.07558699430104561,-9.973936961190374,0.4455807442863703
1560244287659220992,-0.0035582272112224017,0.0017548812284567247,-1.7486776268924586e-05,0.08498882365059898,-9.932973010980893,0.43770904863430365
1560244287664227072,-0.005303556449696771,9.552009991239174e-06,-1.7486776268924586e-05,0.051362725788237897,-9.944064083407756,0.4502533924405237
1560244287669232896,-0.005303556449696771,9.552009991239174e-06,-1.7486776268924586e-05,0.05751861097255375,-9.924393507810628,0.38969187695216784
1560244287674238720,-0.0035582272112224017,9.552009991239174e-06,-0.0017628160583990392,0.07631756721403841,-9.972974237195714,0.42303924554146427
1560244287679244800,-0.0035582272112224017,9.552009991239174e-06,-0.0035081451804580867,0.08782544968697749,-9.944057394359858,0.41960313499948926
1560244287684250880,-0.005303556449696771,9.552009991239174e-06,-1.7486776268924586e-05,0.09682490254059758,-9.926891551910723,0.41088270355556905
1560244287689256960,-0.005303556449696771,9.552009991239174e-06,-1.7486776268924586e-05,0.07300973257239979,-9.94406003704661,0.44928286632661046
1560244287694262784,-0.005303556449696771,9.552009991239174e-06,-0.0017628160583990392,0.06366944315511783,-9.935924087984134,0.44159918713787844
1560244287699268864,-0.005303556449696771,9.552009991239174e-06,-1.7486776268924586e-05,0.07658533860247177,-9.909946479493733,0.41515760530304796
1560244287704274688,-0.005303556449696771,9.552009991239174e-06,-1.7486776268924586e-05,0.07553383541565947,-9.942295557502346,0.4474133787644335
1560244287709280768,-0.0035582272112224017,9.552009991239174e-06,-1.7486776268924586e-05,0.08508807661224331,-9.933279544319584,0.44399217796396073
1560244287714286592,-0.005303556449696771,0.0017548812284567247,-0.0017628160583990392,0.09642839507445303,-9.94353929681204,0.4072337181447846
1560244287719292672,-0.0035582272112224017,0.0017548812284567247,-1.7486776268924586e-05,0.07588936146017763,-9.939809529905729,0.4364562274768911
1560244287724298496,-0.0035582272112224017,9.552009991239174e-06,-1.7486776268924586e-05,0.07474757549406068,-9.942660253546551,0.4289632692274232
1560244287729304832,-0.005303556449696771,9.552009991239174e-06,-1.7486776268924586e-05,0.06299136282260888,-9.916686841589565,0.42950007650122857
1560244287734310656,-0.005303556449696771,0.0017548812284567247,-1.7486776268924586e-05,0.0761408537470722,-9.903413603214524,0.42891550596024175
1560244287739316736,-0.0035582272112224017,9.552009991239174e-06,-1.7486776268924586e-05,0.05795150106701791,-9.921774132561016,0.42972412735839777
1560244287744322560,-0.0035582272112224017,9.552009991239174e-06,-1.7486776268924586e-05,0.0718266367188799,-9.947743910349098,0.4493345168061982
1560244287749328640,-0.005303556449696771,9.552009991239174e-06,-1.7486776268924586e-05,0.06459326570492419,-9.945709896513687,0.4496595453542987
1560244287754334464,-0.0035582272112224017,0.0035002105833464156,-1.7486776268924586e-05,0.07644916882044533,-9.923736782854059,0.41927698473313446
1560244287759340544,-0.0035582272112224017,0.005245539588990141,-1.7486776268924586e-05,0.0764698390390177,-9.924053577901503,0.4089663257618244
1560244287764346368,-0.005303556449696771,0.0017548812284567247,-1.7486776268924586e-05,0.061916257885492654,-9.944061968950903,0.4295380328915734
1560244287769352192,-0.0035582272112224017,9.552009991239174e-06,-1.7486776268924586e-05,0.06424456492559072,-9.932438298682895,0.44101534640503554
1560244287774358528,-0.0035582272112224017,9.552009991239174e-06,-1.7486776268924586e-05,0.07357297548264649,-9.941011086536287,0.4148482336004198
1560244287779364352,-0.0035582272112224017,9.552009991239174e-06,-0.0017628160583990392,0.03844545264569637,-9.941462902600449,0.43059131575713666
1560244287784370432,-0.005303556449696771,9.552009991239174e-06,-0.0017628160583990392,0.05600347374285492,-9.923740492413518,0.4298107283829762
1560244287789376256,-0.00704888568817114,0.0017548812284567247,-0.0017628160583990392,0.05555168651338818,-9.937639859651151,0.4436697683377261
1560244287794382336,-0.0035582272112224017,9.552009991239174e-06,-1.7486776268924586e-05,0.07471425130722582,-9.924510056617457,0.44921372314553426
1560244287799388160,-0.005303556449696771,9.552009991239174e-06,-1.7486776268924586e-05,0.055504228474003846,-9.923740879769417,0.4452187129151667
1560244287804394240,-0.0035582272112224017,9.552009991239174e-06,-1.7486776268924586e-05,0.06104948153371224,-9.92373954052195,0.434828789278306
1560244287809400064,-0.0035582272112224017,9.552009991239174e-06,-1.7486776268924586e-05,0.07349614266820945,-9.92373719255257,0.44720651561269786
1560244287814407168,-0.0035582272112224017,9.552009991239174e-06,-0.0017628160583990392,0.0754802813049575,-9.92373681825968,0.44917966526221254
1560244287819411968,-0.0035582272112224017,9.552009991239174e-06,-0.0017628160583990392,0.0754802813049575,-9.92373681825968,0.44917966526221254
1560244287824418304,-0.0035582272112224017,0.005245539588990141,-0.0017628160583990392,0.06360720297895316,-9.949372012433875,0.42417197843299637
1560244287829424128,-0.0035582272112224017,0.005245539588990141,-0.0017628160583990392,0.05546596248300229,-9.927454340294725,0.44637709453179797
1560244287834430208,-0.0035582272112224017,0.0035002105833464156,-1.7486776268924586e-05,0.06651001365098094,-9.923738933582738,0.45336420029521085
1560244287839436032,-0.005303556449696771,0.0017548812284567247,-1.7486776268924586e-05,0.0969866561420255,-9.923732895751558,0.44964216607407326
1560244287844442112,-0.005303556449696771,0.005245539588990141,-0.0017628160583990392,0.07564631258394935,-9.938835499113086,0.4439634051510366
1560244287849447936,-0.005303556449696771,0.0017548812284567247,-0.0035081451804580867,0.07635714325993255,-9.90427504419169,0.4090920229400131
1560244287854455040,-0.0035582272112224017,9.552009991239174e-06,-0.0017628160583990392,0.05600084526418767,-9.937977274164401,0.42980552335309613
1560244287859459840,-0.0018128979727480327,0.0017548812284567247,-0.0017628160583990392,0.06724520472549865,-9.935470621378986,0.4409880981827953
1560244287864465920,-0.0035582272112224017,0.0017548812284567247,-1.7486776268924586e-05,0.05825908969252089,-9.926680750521454,0.44995070070217275
1560244287869472000,-0.005303556449696771,9.552009991239174e-06,0.0017278424185496989,0.07336658443892136,-9.923736934277962,0.43172974328659025
1560244287874477824,-0.005303556449696771,9.552009991239174e-06,-1.7486776268924586e-05,0.055886459247198296,-9.923740982113426,0.4334218949035871
1560244287879483904,-0.005303556449696771,9.552009991239174e-06,-0.0017628160583990392,0.07007196478641302,-9.951737495834408,0.4228713771849084
1560244287884491008,-0.008794214926645508,9.552009991239174e-06,-0.0017628160583990392,0.05602244596073214,-9.944727977903897,0.4493825019182125
1560244287889496832,-0.005303556449696771,9.552009991239174e-06,-1.7486776268924586e-05,0.05500729834797512,-9.949047353832329,0.4604020290676683
1560244287894501632,-0.0035582272112224017,0.0017548812284567247,-1.7486776268924586e-05,0.05599792451091245,-9.953758692912889,0.4297997362553487
1560244287899507712,-0.0018128979727480327,0.0035002105833464156,-0.0017628160583990392,0.07160575382357168,-9.927779572655547,0.44532586087741616
1560244287904513536,-0.0018128979727480327,0.0017548812284567247,-0.0017628160583990392,0.05857577441442807,-9.962779523130134,0.44832215054382524
1560244287909520896,-0.0035582272112224017,9.552009991239174e-06,-1.7486776268924586e-05,0.08930039224445493,-9.944057116139971,0.4210699087163927
1560244287914525696,-0.0018128979727480327,-0.0017357772484920134,-1.7486776268924586e-05,0.0644093980082659,-9.956978416746614,0.3963144066468745
1560244287919532800,-0.0018128979727480327,9.552009991239174e-06,-1.7486776268924586e-05,0.07271308993335363,-9.94580816722949,0.4810735299321527
1560244287924537600,-0.0018128979727480327,9.552009991239174e-06,-1.7486776268924586e-05,0.0728054280624536,-9.944060189395021,0.4126872667643612
1560244287929543680,-0.0018128979727480327,0.0017548812284567247,-1.7486776268924586e-05,0.07460757576620661,-9.944059963057004,0.438478218683531
1560244287934549504,-0.0018128979727480327,9.552009991239174e-06,-1.7486776268924586e-05,0.06599071822539865,-9.928863343182877,0.4344653164142404
1560244287939556608,-0.0035582272112224017,0.0017548812284567247,-0.0017628160583990392,0.055989915601034584,-9.904476866882437,0.43034597527741814
1560244287944562432,-0.00704888568817114,0.0017548812284567247,-0.0017628160583990392,0.05534516779861474,-9.931699388619904,0.45007948091875805
1560244287949567488,-0.005303556449696771,9.552009991239174e-06,-1.7486776268924586e-05,0.06744816049366151,-9.927075276925533,0.43775555703968905
1560244287954574336,-0.0035582272112224017,0.0017548812284567247,-1.7486776268924586e-05,0.05881083202533776,-9.944062614220604,0.42967726335759315
1560244287959579648,-0.0035582272112224017,0.0017548812284567247,-1.7486776268924586e-05,0.06000808278245717,-9.923739936781095,0.3919435310637832
1560244287964586496,-0.0035582272112224017,9.552009991239174e-06,-1.7486776268924586e-05,0.07679236283784255,-9.93219940918195,0.40863331253228613
1560244287969592576,-0.005303556449696771,-0.0017357772484920134,-1.7486776268924586e-05,0.048370091446146485,-9.92994972183492,0.42396710638454604
1560244287974598400,-0.0035582272112224017,9.552009991239174e-06,-1.7486776268924586e-05,0.09395934731359455,-9.963259584435495,0.4477782949412034
1560244287979604480,-0.005303556449696771,9.552009991239174e-06,-1.7486776268924586e-05,0.07125856910314879,-9.938972699609044,0.42405374979691657
1560244287984610304,-0.005303556449696771,9.552009991239174e-06,-1.7486776268924586e-05,0.05666227569100417,-9.913009377499627,0.40954301118124176
1560244287989616384,-0.00704888568817114,0.005245539588990141,-0.0017628160583990392,0.05665496123707658,-9.952560891576432,0.409528535969736
1560244287994622208,-0.008794214926645508,0.005245539588990141,-0.0035081451804580867,0.07614022394761227,-9.906825047072902,0.42891425617892304
1560244287999628032,-0.005303556449696771,0.0017548812284567247,-0.0017628160583990392,0.0690854700343582,-9.944060695527845,0.4218917561945661
1560244288004634368,-0.005303556449696771,9.552009991239174e-06,-1.7486776268924586e-05,0.06954058454095613,-9.94406098232731,0.40895399076649414
1560244288009640192,-0.005303556449696771,-0.0017357772484920134,-1.7486776268924586e-05,0.07558443749898867,-9.94405952046914,0.44584095365472465
1560244288014646272,-0.005303556449696771,-0.0017357772484920134,-1.7486776268924586e-05,0.07653294125135864,-9.944059485453788,0.41656735347322466
1560244288019652096,-0.0035582272112224017,9.552009991239174e-06,-0.0017628160583990392,0.06625255890525525,-9.934434849974522,0.44000113546057434
1560244288024658176,-0.0018128979727480327,0.0017548812284567247,-1.7486776268924586e-05,0.07113795425764745,-9.93901680493108,0.4291264675820566
1560244288029664000,-6.756874882557895e-05,9.552009991239174e-06,-1.7486776268924586e-05,0.05478035439420063,-9.963780781918514,0.4673164761048531
1560244288034670080,-0.0035582272112224017,0.0035002105833464156,-1.7486776268924586e-05,0.06376280551770618,-9.944061666633315,0.38118939389395357
1560244288039675904,-0.0035582272112224017,0.0017548812284567247,-0.0017628160583990392,0.07679237081704833,-9.932156530311353,0.40863332827147686
1560244288044681984,-0.0035582272112224017,9.552009991239174e-06,-1.7486776268924586e-05,0.0936153557213256,-9.92373359702082,0.42536467290957447
1560244288049688064,-0.0035582272112224017,9.552009991239174e-06,-1.7486776268924586e-05,0.09246910370973829,-9.941171779517523,0.4571613256860665
1560244288054694144,-0.005303556449696771,0.0017548812284567247,-0.0017628160583990392,0.07662316597022167,-9.923736494970127,0.41390733872995034
1560244288059699968,-0.0035582272112224017,9.552009991239174e-06,-1.7486776268924586e-05,0.06279883220382033,-9.93792566182066,0.4073526175964001
1560244288064706048,-0.0035582272112224017,9.552009991239174e-06,-1.7486776268924586e-05,0.05603122382298022,-9.944063197178073,0.42883104931529553
1560244288069711872,-0.005303556449696771,9.552009991239174e-06,-1.7486776268924586e-05,0.07547276057698112,-9.96438320135494,0.4491648592907488
1560244288074717952,-0.0035582272112224017,9.552009991239174e-06,-1.7486776268924586e-05,0.07582617561926823,-9.942760934746627,0.4383891710629186
1560244288079723776,-0.0035582272112224017,9.552009991239174e-06,-1.7486776268924586e-05,0.09297446062769804,-9.923734080638766,0.41175981369236503
1560244288084729856,-0.005303556449696771,9.552009991239174e-06,-1.7486776268924586e-05,0.05771053946427905,-9.942278099044225,0.4315049657404498
1560244288089735680,-0.005303556449696771,9.552009991239174e-06,-1.7486776268924586e-05,0.07523872219847463,-9.931168105432436,0.4565897478957644
1560244288094742016,-0.005303556449696771,9.552009991239174e-06,-1.7486776268924586e-05,0.06312976672582107,-9.930979488845608,0.43088079010261465
1560244288099747840,-0.0035582272112224017,9.552009991239174e-06,-1.7486776268924586e-05,0.056051465858284466,-9.942471309774977,0.4282159544486151
1560244288104753664,-0.0018128979727480327,9.552009991239174e-06,-1.7486776268924586e-05,0.06430258820802832,-9.927795277731674,0.42131435995935756
1560244288109759744,-0.0018128979727480327,0.0017548812284567247,-1.7486776268924586e-05,0.07635138494304805,-9.944059359274567,0.45004226169472045
1560244288114765568,-0.0018128979727480327,9.552009991239174e-06,-0.0017628160583990392,0.0707134011712501,-9.944060422911251,0.4444355337913761
1560244288119771648,-0.005303556449696771,-0.0017357772484920134,-1.7486776268924586e-05,0.07480248028027052,-9.9433791891728,0.4492027399136708
1560244288124777472,-0.005303556449696771,0.0017548812284567247,-1.7486776268924586e-05,0.05554898083183959,-9.936407275223655,0.44376058188085205
1560244288129783552,-0.0035582272112224017,0.0017548812284567247,-1.7486776268924586e-05,0.06787103603616697,-9.9404196178058,0.4292723994645169
1560244288134789376,-0.0035582272112224017,0.0017548812284567247,-0.0017628160583990392,0.07613713233267645,-9.92373630886357,0.4289080449219559
1560244288139795456,-0.005303556449696771,-0.0017357772484920134,-1.7486776268924586e-05,0.0754770489556645,-9.941102369640825,0.4491733428022104
1560244288144801536,-0.0018128979727480327,-0.0017357772484920134,-1.7486776268924586e-05,0.0751987819548223,-9.94096000177703,0.4577632179521829
1560244288149807616,-6.756874882557895e-05,0.0035002105833464156,-1.7486776268924586e-05,0.06207682745726667,-9.935865963333326,0.4274087675808037
1560244288154813440,-0.0018128979727480327,0.0035002105833464156,-0.0017628160583990392,0.09545333032835465,-9.963548404548204,0.4276131207065311
1560244288159819520,-0.0035582272112224017,0.0017548812284567247,-1.7486776268924586e-05,0.09125331382813753,-9.933589874326838,0.42301392712328173
1560244288164825344,-0.0018128979727480327,0.0017548812284567247,-1.7486776268924586e-05,0.07609023647673462,-9.925177903452523,0.4303450170716212
1560244288169831424,-0.0035582272112224017,9.552009991239174e-06,-1.7486776268924586e-05,0.05909879015938948,-9.9440629277336,0.4499065787439978
1560244288174837248,-0.0035582272112224017,-0.005226435841856073,-1.7486776268924586e-05,0.07423696396181671,-9.925593816864138,0.43084226919442054
1560244288179843328,-0.005303556449696771,-0.0034811063705510606,-0.0017628160583990392,0.07022575546688993,-9.936550355672574,0.44941050602674354
1560244288184849152,-0.0035582272112224017,9.552009991239174e-06,-1.7486776268924586e-05,0.06996561031711597,-9.92373806495549,0.4363198412767874
1560244288189855488,-0.0035582272112224017,0.005245539588990141,-0.0017628160583990392,0.07524754256857027,-9.942551571359473,0.4102008924744838
1560244288195221760,-0.005303556449696771,0.005245539588990141,-0.0017628160583990392,0.051764653383977365,-9.923741251398079,0.434127820459913
1560244288200228096,-0.0018128979727480327,9.552009991239174e-06,-1.7486776268924586e-05,0.054930984591322146,-9.933533154175176,0.44034341550342027
1560244288205234176,-0.0018128979727480327,9.552009991239174e-06,-1.7486776268924586e-05,0.06133354340518764,-9.928616991383196,0.4141855593075521
1560244288210240000,-0.0035582272112224017,9.552009991239174e-06,-0.0017628160583990392,0.07550510658490395,-9.925290794174366,0.448404070852705
1560244288215246336,-0.0035582272112224017,0.0017548812284567247,-0.0017628160583990392,0.07613199312615172,-9.951515213716466,0.4288978846910614
1560244288220252672,-0.005303556449696771,0.0017548812284567247,-0.0017628160583990392,0.07652784891673539,-9.923736583333666,0.41684897570389595
1560244288225258752,-0.0035582272112224017,9.552009991239174e-06,-1.7486776268924586e-05,0.05749234662867366,-9.959220914563257,0.4624976465623425
1560244288230264832,-0.0035582272112224017,0.0017548812284567247,-1.7486776268924586e-05,0.07613392063486825,-9.940993164006093,0.42890173631383055
1560244288235270912,-0.0035582272112224017,0.0035002105833464156,-0.0017628160583990392,0.06750127871077137,-9.915019537869847,0.42929848922135466
1560244288240277248,-0.0035582272112224017,0.005245539588990141,-0.0017628160583990392,0.07070604980804249,-9.903415154947412,0.41484793497392947
1560244288245283328,-0.0035582272112224017,0.0017548812284567247,-1.7486776268924586e-05,0.07484954702201049,-9.943445591228143,0.46852624143466065
1560244288250289408,-0.005303556449696771,9.552009991239174e-06,-1.7486776268924586e-05,0.0708383495441827,-9.9237374098916,0.42914561344758545
1560244288255295744,-0.005303556449696771,0.0017548812284567247,-0.0017628160583990392,0.06654583122684789,-9.945747973757278,0.44029073047858935
1560244288260302080,-0.005303556449696771,0.005245539588990141,-1.7486776268924586e-05,0.07494047806109773,-9.931061004559906,0.46579565814048285
1560244288265308160,-0.005303556449696771,0.005245539588990141,-1.7486776268924586e-05,0.09093923813689829,-9.925727605534748,0.40998662475297065
1560244288270314240,-6.756874882557895e-05,0.0035002105833464156,-1.7486776268924586e-05,0.04368891511579055,-9.936419931913738,0.42274295018223085
1560244288275320576,-6.756874882557895e-05,0.0017548812284567247,-1.7486776268924586e-05,0.05708763973601556,-9.93703877363494,0.39626948445576204
1560244288280326656,-0.0035582272112224017,9.552009991239174e-06,-0.0017628160583990392,0.07486854012901582,-9.92510619886919,0.42623603945402777
1560244288285332736,-0.0035582272112224017,9.552009991239174e-06,-0.0017628160583990392,0.05703722302555103,-9.939778706887909,0.39780896252328496
1560244288290338816,-0.0035582272112224017,0.0017548812284567247,-0.0017628160583990392,0.05568237326156745,-9.923740741549912,0.4397207096239445
1560244288295345408,-0.0035582272112224017,0.0017548812284567247,-1.7486776268924586e-05,0.056348722406090304,-9.954925378298524,0.4189656402976327
1560244288300351488,-0.0035582272112224017,9.552009991239174e-06,-1.7486776268924586e-05,0.05663042458957235,-9.923740932575418,0.41046095938619503
1560244288305357568,-0.0035582272112224017,9.552009991239174e-06,-0.0017628160583990392,0.062308804151040315,-9.923739302960172,0.4360811372417927
1560244288310363648,-0.0018128979727480327,0.0017548812284567247,-0.005253474418932456,0.0875979035605493,-9.935968594003102,0.4486317985055408
1560244288315369728,-6.756874882557895e-05,9.552009991239174e-06,-0.0017628160583990392,0.06131883259673005,-9.944062779992379,0.41416811548801763
1560244288320375808,-0.0035582272112224017,9.552009991239174e-06,-1.7486776268924586e-05,0.07384251082226828,-9.923736939371924,0.40136248344387293
1560244288325381888,-0.0035582272112224017,9.552009991239174e-06,-1.7486776268924586e-05,0.054689816434295664,-9.923740540909026,0.47035403538643605
1560244288330388480,-0.0035582272112224017,9.552009991239174e-06,-1.7486776268924586e-05,0.07001719536297545,-9.952795744489338,0.44071353593518275
1560244288335395584,-0.0018128979727480327,9.552009991239174e-06,-0.0017628160583990392,0.036130824002756995,-9.94419998947906,0.43069406873276456
1560244288340401664,-0.0018128979727480327,9.552009991239174e-06,-0.0017628160583990392,0.07583293700690116,-9.94405951129543,0.43817153197689424
1560244288345406720,-0.0018128979727480327,9.552009991239174e-06,-1.7486776268924586e-05,0.06573570413970731,-9.932901419668099,0.4091287537030929
1560244288350414080,-0.0035582272112224017,9.552009991239174e-06,-1.7486776268924586e-05,0.055029305858328104,-9.923740612001392,0.4598763568702793
1560244288355419136,-0.005303556449696771,9.552009991239174e-06,-1.7486776268924586e-05,0.05746499804984104,-9.941921625748043,0.44998062921522686
1560244288360426240,-0.005303556449696771,9.552009991239174e-06,-1.7486776268924586e-05,0.06052805035005934,-9.931539698382705,0.43430881456428755
1560244288365431296,-0.0035582272112224017,-0.0017357772484920134,-1.7486776268924586e-05,0.04853815381478385,-9.957511727172012,0.4500706020586411
1560244288370438912,-0.0035582272112224017,0.0017548812284567247,-0.0017628160583990392,0.09377393618345774,-9.94527467933192,0.430536334955103
1560244288375444992,-0.0018128979727480327,0.005245539588990141,-0.0017628160583990392,0.07240668752903609,-9.891960276801164,0.4088449989588256
1560244288380451072,-0.0035582272112224017,9.552009991239174e-06,-0.0017628160583990392,0.056006680997726224,-9.93382379062309,0.4296503683508556
1560244288385457152,-0.0035582272112224017,-0.0017357772484920134,-1.7486776268924586e-05,0.08703419467438775,-9.928321284283772,0.4329860018390144
1560244288390463232,-0.0018128979727480327,-0.0017357772484920134,-1.7486776268924586e-05,0.05705867671511909,-9.944062978297154,0.4297558205060702
1560244288395469312,-0.0035582272112224017,0.0017548812284567247,-0.0017628160583990392,0.06281425438498245,-9.950783241789921,0.4294952484387886
1560244288400475392,-0.0018128979727480327,0.005245539588990141,-0.0017628160583990392,0.06118353740307812,-9.939637931166839,0.4049235570266219
1560244288405481728,-0.0018128979727480327,0.005245539588990141,-1.7486776268924586e-05,0.11199622881865615,-9.941755240434786,0.422715639132188
1560244288410488064,-0.0035582272112224017,0.005245539588990141,-1.7486776268924586e-05,0.05899770339438894,-9.923740218914132,0.43988814140671834
1560244288415494144,-0.0018128979727480327,0.005245539588990141,-1.7486776268924586e-05,0.06794367993438036,-9.93274515558859,0.40673033354558474
1560244288420500480,-0.0035582272112224017,9.552009991239174e-06,-1.7486776268924586e-05,0.07099991802810837,-9.944060512658526,0.4145261163753584
1560244288425506560,-0.0035582272112224017,-0.0017357772484920134,-1.7486776268924586e-05,0.056009844802193,-9.944063196522654,0.42979298822649736
1560244288430512640,-0.0035582272112224017,-0.0034811063705510606,-1.7486776268924586e-05,0.07708866570399242,-9.909057321384228,0.3996292998420045
1560244288435518720,-0.0035582272112224017,9.552009991239174e-06,-1.7486776268924586e-05,0.07613503026863207,-9.9350309626201,0.42890391592255983
1560244288440525056,-0.0018128979727480327,0.0017548812284567247,-0.0017628160583990392,0.043651865823924677,-9.944065141987265,0.39659898884444134
1560244288445531392,-0.005303556449696771,0.0017548812284567247,-1.7486776268924586e-05,0.05817953798981967,-9.964386462937943,0.43196733178646335
1560244288450537472,-0.0035582272112224017,9.552009991239174e-06,-1.7486776268924586e-05,0.06787387762988172,-9.964384634539954,0.4416080260963616
1560244288455543552,-0.0018128979727480327,9.552009991239174e-06,-1.7486776268924586e-05,0.05512294282069275,-9.937219207690463,0.4569045932595192
1560244288460549888,-6.756874882557895e-05,0.0017548812284567247,-0.0017628160583990392,0.0946594277592922,-9.942967038029778,0.41108407922514156
1560244288465555968,-0.0018128979727480327,0.0017548812284567247,-1.7486776268924586e-05,0.05178136470331211,-9.91918105802621,0.42091758262137213
1560244288470562048,-0.0035582272112224017,0.0017548812284567247,-1.7486776268924586e-05,0.0567622552587161,-9.923846365402962,0.40964047769603273
1560244288475568128,-0.005303556449696771,9.552009991239174e-06,-0.0017628160583990392,0.05938817741475383,-9.928192396965121,0.4612714310960954
1560244288480574464,-0.005303556449696771,0.0017548812284567247,-0.0017628160583990392,0.07498556301972498,-9.944059288526201,0.4277591832395416
1560244288485580800,-0.005303556449696771,0.0017548812284567247,-0.0017628160583990392,0.06322676458486086,-9.937207850241741,0.4160667246659558
1560244288490586880,-0.00704888568817114,9.552009991239174e-06,-1.7486776268924586e-05,0.07613713233267645,-9.92373630886357,0.4289080449219559
1560244288495592960,-0.00704888568817114,9.552009991239174e-06,-1.7486776268924586e-05,0.058144481223804875,-9.905575067815185,0.4297215288419138
1560244288500599040,-0.005303556449696771,0.0035002105833464156,-0.0017628160583990392,0.09214691385714688,-9.94056045803623,0.448426126842842
1560244288505605120,-0.005303556449696771,9.552009991239174e-06,-0.0017628160583990392,0.07607352657229947,-9.914585021681651,0.430925468955496
1560244288510611200,-0.0018128979727480327,9.552009991239174e-06,-0.0017628160583990392,0.07679494791323614,-9.91822030677544,0.40863843586953785
1560244288515617536,-0.0018128979727480327,0.0035002105833464156,-0.0017628160583990392,0.056786788338216126,-9.964247490764263,0.4096575019877403
1560244288520623616,-0.005303556449696771,0.0017548812284567247,-1.7486776268924586e-05,0.0763217101977764,-9.938264323541443,0.42312247604532954
1560244288525629952,-0.0035582272112224017,9.552009991239174e-06,-1.7486776268924586e-05,0.07679180682711229,-9.935187314592445,0.4086322157866721
1560244288530636032,-0.0035582272112224017,9.552009991239174e-06,-1.7486776268924586e-05,0.0592947722218307,-9.926957736962134,0.426456873037565
1560244288535642368,-0.0035582272112224017,9.552009991239174e-06,-0.0017628160583990392,0.09151893763726382,-9.923734038707913,0.42579007599847185
1560244288540648448,-0.005303556449696771,9.552009991239174e-06,-1.7486776268924586e-05,0.06388779476811024,-9.931827628022402,0.43338139923841335
1560244288545654528,-0.005303556449696771,-0.0034811063705510606,-1.7486776268924586e-05,0.07526374621685847,-9.944059375079545,0.45573865418192905
1560244288550660864,-0.005303556449696771,-0.0034811063705510606,-1.7486776268924586e-05,0.05751694229274715,-9.944063470425663,0.4113439085445795
1560244288555666944,-0.0035582272112224017,0.0017548812284567247,-1.7486776268924586e-05,0.06118603264739808,-9.944062579315341,0.4140360541438874
1560244288560673024,-0.0035582272112224017,0.0017548812284567247,-1.7486776268924586e-05,0.08675580952309035,-9.944057609041309,0.41808202664726035
1560244288565679360,-0.0035582272112224017,9.552009991239174e-06,-1.7486776268924586e-05,0.08051567029297772,-9.928016537936227,0.4244462868001314
1560244288570685696,-0.0035582272112224017,9.552009991239174e-06,-1.7486776268924586e-05,0.07670443485383378,-9.92511743584768,0.4113902999900703
1560244288575691776,-0.0035582272112224017,9.552009991239174e-06,-1.7486776268924586e-05,0.06896310905756334,-9.93702607783381,0.4354528978504682
1560244288580697856,-0.0018128979727480327,9.552009991239174e-06,-1.7486776268924586e-05,0.05666029462481043,-9.923740953546204,0.4095390716739305
1560244288585703936,-0.0018128979727480327,0.0017548812284567247,-1.7486776268924586e-05,0.0736494942644221,-9.923737220535681,0.44532347310575826
1560244288590710272,-0.0018128979727480327,0.0017548812284567247,-0.0035081451804580867,0.05964546702665712,-9.940383149069385,0.4296412185911089
1560244288595716352,-0.0018128979727480327,0.005245539588990141,-0.0017628160583990392,0.09432906336638408,-9.923733591977856,0.4373890985105096
1560244288600722432,-0.0035582272112224017,9.552009991239174e-06,-0.0017628160583990392,0.0865328659867477,-9.923734756305999,0.43375452185995367
1560244288605729792,-0.005303556449696771,-0.0017357772484920134,-0.0017628160583990392,0.07610121077255703,-9.943393557377787,0.42989655107090624
1560244288610734848,-0.0035582272112224017,9.552009991239174e-06,-1.7486776268924586e-05,0.06863191304529102,-9.915371948248511,0.4780650762063762
1560244288615740928,-0.0018128979727480327,9.552009991239174e-06,-1.7486776268924586e-05,0.06649162921449221,-9.944061049415074,0.4611619806016227
1560244288620747008,-0.0035582272112224017,-0.0017357772484920134,-1.7486776268924586e-05,0.07481969273646323,-9.944059063307678,0.46944392253073075
1560244288625753344,-0.0035582272112224017,-0.0034811063705510606,-1.7486776268924586e-05,0.07938777799451312,-9.94143753517625,0.40851347907220625
1560244288630759424,-0.0035582272112224017,9.552009991239174e-06,-0.0017628160583990392,0.0881937879390274,-9.923734885343404,0.42461135434509584
1560244288635765504,-0.0035582272112224017,9.552009991239174e-06,-0.0017628160583990392,0.07547768916043977,-9.937662918049508,0.44917459503973733
1560244288640771584,-0.0035582272112224017,0.0017548812284567247,-0.0017628160583990392,0.07611299959079033,-9.924478709433078,0.42964829044661773
1560244288645779200,-0.0018128979727480327,9.552009991239174e-06,-1.7486776268924586e-05,0.07143050430988235,-9.913240790197467,0.4242294396409462
1560244288650784256,-0.0035582272112224017,9.552009991239174e-06,-1.7486776268924586e-05,0.06678030866532542,-9.944061245242205,0.4195993573809811
1560244288655791360,-0.005303556449696771,0.005245539588990141,-1.7486776268924586e-05,0.059540170279247955,-9.9278399789895,0.4458091478330794
1560244288660797696,-0.005303556449696771,0.005245539588990141,-0.0017628160583990392,0.07580851408786382,-9.922180152205007,0.3915395413991043
1560244288665803776,-0.0018128979727480327,9.552009991239174e-06,-0.0017628160583990392,0.0702896300338679,-9.917834376628315,0.4291724194843067
1560244288670809856,-0.0018128979727480327,-0.0017357772484920134,-1.7486776268924586e-05,0.0703686546961557,-9.944060805359362,0.4419691279227902
1560244288675815936,-6.756874882557895e-05,-0.0017357772484920134,-1.7486776268924586e-05,0.07547618668346515,-9.944059389554614,0.3938601564211478
1560244288680822272,-0.0018128979727480327,9.552009991239174e-06,-1.7486776268924586e-05,0.05126080184804997,-9.907258641583402,0.4590391867978897
1560244288685828352,-0.0018128979727480327,0.0017548812284567247,-1.7486776268924586e-05,0.04562374598790848,-9.923742450471401,0.4194884878890873
1560244288690834432,-0.0035582272112224017,0.005245539588990141,-0.0017628160583990392,0.0555111889399439,-9.93888577943113,0.44491207323664306
1560244288695840512,-0.0035582272112224017,0.0017548812284567247,-1.7486776268924586e-05,0.0763030668117527,-9.943583346398718,0.40912530615260456
1560244288700846848,-0.005303556449696771,9.552009991239174e-06,-1.7486776268924586e-05,0.062471300209318154,-9.917611599664719,0.41731636628329666
1560244288705852928,-0.0035582272112224017,9.552009991239174e-06,-1.7486776268924586e-05,0.07669310131979418,-9.903413582930758,0.4118715368643358
1560244288710859008,-0.0018128979727480327,9.552009991239174e-06,-1.7486776268924586e-05,0.07670106024007486,-9.92084654024149,0.41152038009368147
1560244288715865344,-0.0035582272112224017,0.0017548812284567247,-1.7486776268924586e-05,0.07066797877910236,-9.923737313441814,0.42915325295557855
1560244288720871680,-0.0035582272112224017,9.552009991239174e-06,-1.7486776268924586e-05,0.06060884870805741,-9.94057262308799,0.4379809625081039
1560244288725877760,-0.0018128979727480327,9.552009991239174e-06,-0.0017628160583990392,0.06864753278834954,-9.93624926754432,0.4214576690876619
1560244288730883840,-0.005303556449696771,0.0017548812284567247,-1.7486776268924586e-05,0.057294055511754205,-9.94346187238412,0.38986002271734244
1560244288735890176,-0.00704888568817114,0.0035002105833464156,-1.7486776268924586e-05,0.07597393928238295,-9.923736435421802,0.4339444800010127
1560244288740896256,-0.00704888568817114,9.552009991239174e-06,-1.7486776268924586e-05,0.06557032300925837,-9.923738995759468,0.42830629080382193
1560244288745902336,-0.0018128979727480327,-0.0017357772484920134,-1.7486776268924586e-05,0.05666029462481043,-9.923740953546204,0.4095390716739305
1560244288750908416,-0.0035582272112224017,-0.0017357772484920134,-1.7486776268924586e-05,0.07512563331484663,-9.944059821825016,0.4087035873530886
1560244288755914752,-0.005303556449696771,0.0017548812284567247,-0.0017628160583990392,0.0566578970831322,-9.93672689786334,0.40953432395570494
1560244288760921088,-0.0035582272112224017,0.0035002105833464156,-0.0017628160583990392,0.08239585456919528,-9.923736226589767,0.4083852436548737
1560244288765927168,-0.005303556449696771,9.552009991239174e-06,-1.7486776268924586e-05,0.07785722111047658,-9.923736081229801,0.42715619453451276
1560244288770933504,-0.0035582272112224017,9.552009991239174e-06,-1.7486776268924586e-05,0.05887169108100642,-9.960416879826003,0.4622461650686425
1560244288775939584,-0.0018128979727480327,0.0017548812284567247,-1.7486776268924586e-05,0.06690955327871119,-9.9440612144211,0.4197278864299093
1560244288780945664,-0.0035582272112224017,0.0035002105833464156,-0.0017628160583990392,0.0712966116391368,-9.959339732104223,0.4240878587473292
1560244288785951488,-0.005303556449696771,0.0035002105833464156,-1.7486776268924586e-05,0.07549991589552363,-9.924347807554119,0.44856997318205544
1560244288790957824,-0.0035582272112224017,9.552009991239174e-06,-1.7486776268924586e-05,0.06992964136366395,-9.937797168395194,0.42918109787794223
1560244288795963904,-0.0035582272112224017,-0.0017357772484920134,-0.0017628160583990392,0.05600127264609316,-9.935662420713815,0.42980636967367536
1560244288800970240,-0.0018128979727480327,9.552009991239174e-06,-0.0017628160583990392,0.055999721644950325,-9.944063198335131,0.42980329831251385
1560244288805976320,-0.0035582272112224017,0.0017548812284567247,-1.7486776268924586e-05,0.0588777052979011,-9.944062600325152,0.4296742651224645
1560244288810982656,-0.00704888568817114,0.0017548812284567247,-1.7486776268924586e-05,0.0679321727881381,-9.935501959005434,0.420746401939229
1560244288815988736,-0.0035582272112224017,0.0017548812284567247,-1.7486776268924586e-05,0.05666029462481043,-9.923740953546204,0.4095390716739305
1560244288820994816,-0.0018128979727480327,0.0035002105833464156,-1.7486776268924586e-05,0.07504810257430644,-9.94359692352128,0.44826992155997364
1560244288826001152,-0.0018128979727480327,9.552009991239174e-06,-1.7486776268924586e-05,0.07099313021715878,-9.9237373777299,0.4291386739262382
1560244288831007232,-0.0035582272112224017,9.552009991239174e-06,-0.0017628160583990392,0.05600347374285492,-9.923740492413518,0.4298107283829762
1560244288836013312,-0.0035582272112224017,9.552009991239174e-06,-0.0035081451804580867,0.07287857453794364,-9.940235904904103,0.41261488687316195
1560244288841019648,-0.0018128979727480327,9.552009991239174e-06,-0.0017628160583990392,0.09392652759468997,-9.903411184402788,0.444722458261965
1560244288846025984,-0.0035582272112224017,9.552009991239174e-06,-1.7486776268924586e-05,0.06914177375672739,-9.910897733738159,0.41643695136941317
1560244288851033088,-0.005303556449696771,9.552009991239174e-06,-1.7486776268924586e-05,0.06901744489815766,-9.936876423327607,0.42922234014479593
1560244288856038144,-0.0035582272112224017,9.552009991239174e-06,-1.7486776268924586e-05,0.05813150257418844,-9.925276002494886,0.4110018548178484
1560244288861044224,-0.0018128979727480327,9.552009991239174e-06,-1.7486776268924586e-05,0.07666025206867931,-9.927849458213423,0.4127373594378369
1560244288866050560,-0.0035582272112224017,0.0017548812284567247,-1.7486776268924586e-05,0.07581955741305482,-9.934294414009297,0.43864448474002393
1560244288871056640,-0.0035582272112224017,9.552009991239174e-06,-1.7486776268924586e-05,0.06070327491161182,-9.939155422938947,0.43448169439829926
1560244288876063744,-0.0035582272112224017,9.552009991239174e-06,-1.7486776268924586e-05,0.056580134669037434,-9.962883182071996,0.41177524205099647
1560244288881069056,-0.005303556449696771,9.552009991239174e-06,-1.7486776268924586e-05,0.06144403322363454,-9.917340265628619,0.4573064234180763
1560244288886075136,-0.005303556449696771,0.0017548812284567247,-1.7486776268924586e-05,0.06419719432166958,-9.91546966223113,0.42944647035207845
1560244288891081216,-0.005303556449696771,0.0035002105833464156,-1.7486776268924586e-05,0.05485908073875214,-9.923740534660396,0.46513004385105416
1560244288896087296,-0.005303556449696771,9.552009991239174e-06,-1.7486776268924586e-05,0.0766921006561731,-9.944059407113388,0.41165533448801384
1560244288901094656,-0.005303556449696771,9.552009991239174e-06,-0.0017628160583990392,0.06752551787977075,-9.935370514792194,0.42928979321499
1560244288906100736,-0.0018128979727480327,9.552009991239174e-06,-1.7486776268924586e-05,0.055542494436461455,-9.909396067450368,0.4441246984075983
1560244288911106816,-0.0018128979727480327,9.552009991239174e-06,-0.0017628160583990392,0.0969096345720333,-9.943410047179261,0.38844988629583505
1560244288916111872,-0.0035582272112224017,9.552009991239174e-06,-0.0017628160583990392,0.07020258178721157,-9.92906418105229,0.4494143130892099
1560244288921118464,-0.005303556449696771,9.552009991239174e-06,-0.0017628160583990392,0.044818542012245874,-9.944065168730036,0.4396088862312728
1560244288926125568,-0.00704888568817114,9.552009991239174e-06,-0.0017628160583990392,0.06883652034850177,-9.9274218901926,0.4292339884320637
1560244288931131648,-0.005303556449696771,9.552009991239174e-06,-1.7486776268924586e-05,0.0753093732768835,-9.944059425336594,0.39432592135414596
1560244288936137984,-0.0035582272112224017,9.552009991239174e-06,-1.7486776268924586e-05,0.06313456282714404,-9.944061949256614,0.4421394266698128
1560244288941144064,-0.0018128979727480327,0.0035002105833464156,-1.7486776268924586e-05,0.06341647037300162,-9.93079030403657,0.41625655848874765
1560244288946150144,-6.756874882557895e-05,0.005245539588990141,-0.0017628160583990392,0.07479757132448547,-9.904815276145314,0.42757940346822115
1560244288951156224,-0.0018128979727480327,0.005245539588990141,-0.0017628160583990392,0.07140573897542897,-9.939811910402204,0.44512481253293246
1560244288956162816,-0.0035582272112224017,0.0017548812284567247,-0.0017628160583990392,0.056001645422963,-9.933643327690964,0.42980710786294446
1560244288961168640,-0.0018128979727480327,0.0017548812284567247,-0.0017628160583990392,0.05549410512669198,-9.959619050791998,0.4453132026468896
1560244288966174720,-0.0018128979727480327,0.005245539588990141,-0.0017628160583990392,0.05621828657048178,-9.962612974332021,0.45002869939117207
1560244288971180800,-0.0035582272112224017,0.0035002105833464156,-1.7486776268924586e-05,0.07590194177245291,-9.930278865737039,0.4361260258947657
1560244288976187136,-0.005303556449696771,9.552009991239174e-06,-0.0017628160583990392,0.06391960615185333,-9.931864185909395,0.433509591267417
1560244288981193216,-0.0035582272112224017,-0.0017357772484920134,-0.0017628160583990392,0.07418645780342852,-9.90588843291591,0.4136881014561944
1560244288986199296,-0.0018128979727480327,9.552009991239174e-06,-1.7486776268924586e-05,0.05960541143976398,-9.912952136786798,0.41574216919376994
1560244288991205632,-0.0018128979727480327,0.0017548812284567247,-0.0017628160583990392,0.05884104375810194,-9.964386171077685,0.42353788073104764
1560244288996211968,-0.0035582272112224017,0.0017548812284567247,-0.0017628160583990392,0.06493660522291592,-9.949902358764168,0.41776480922848847
1560244289001218048,-0.0035582272112224017,9.552009991239174e-06,-1.7486776268924586e-05,0.05684027481132602,-9.944063615652977,0.4097143566517421
1560244289006224128,-0.005303556449696771,9.552009991239174e-06,-1.7486776268924586e-05,0.055525807287664056,-9.90887680866705,0.44464285474210097
1560244289011230464,-0.005303556449696771,9.552009991239174e-06,-1.7486776268924586e-05,0.05600347374285492,-9.923740492413518,0.4298107283829762
1560244289016236544,-0.0018128979727480327,-0.0017357772484920134,-1.7486776268924586e-05,0.05546168166054309,-9.923740912780765,0.44653181628258765
1560244289021242624,-0.0035582272112224017,9.552009991239174e-06,-1.7486776268924586e-05,0.05807580229987182,-9.909684963881077,0.4297230707256839
1560244289026248704,-0.005303556449696771,0.0035002105833464156,-0.0017628160583990392,0.07613103560388834,-9.956644579292101,0.4288960100186674
1560244289031255296,-0.0035582272112224017,0.005245539588990141,-0.0017628160583990392,0.06286941859022145,-9.944061770895708,0.4294952983311339
1560244289036261376,-6.756874882557895e-05,0.005245539588990141,-0.0017628160583990392,0.07486712822526279,-9.925018262810884,0.42896450577984946
1560244289041267456,-0.0035582272112224017,9.552009991239174e-06,-1.7486776268924586e-05,0.06748191853388626,-9.91936924705201,0.4292977389800785
1560244289046273792,-0.0035582272112224017,9.552009991239174e-06,-1.7486776268924586e-05,0.05573152315940939,-9.903417352004872,0.4298305531701495
1560244289051279872,-0.0035582272112224017,0.0017548812284567247,-0.0035081451804580867,0.07663864183749777,-9.950426580776307,0.41326702861072423
1560244289056285952,-0.0035582272112224017,0.0035002105833464156,-0.005253474418932456,0.07449208386918463,-9.906416387981997,0.44923053040889993
1560244289061292032,-0.0018128979727480327,0.0035002105833464156,-1.7486776268924586e-05,0.055768929066746006,-9.96438736844829,0.436802252051982
1560244289066298368,-0.005303556449696771,0.005245539588990141,-1.7486776268924586e-05,0.08022418894842585,-9.976681651629999,0.43296286039185755
1560244289071304448,-0.00704888568817114,9.552009991239174e-06,-1.7486776268924586e-05,0.09560593534099152,-9.966755835329003,0.44826126763741264
1560244289076310528,-0.005303556449696771,9.552009991239174e-06,-1.7486776268924586e-05,0.05903895790011649,-9.923739825429644,0.43620437245562027
1560244289081317888,-0.0035582272112224017,9.552009991239174e-06,-1.7486776268924586e-05,0.07568977352389425,-9.92373653874802,0.44271453293469254
1560244289086323968,-0.0035582272112224017,9.552009991239174e-06,-0.0017628160583990392,0.06186605531450919,-9.938328834051568,0.4238318311590714
1560244289091329024,-0.005303556449696771,9.552009991239174e-06,-0.0017628160583990392,0.056650111145948034,-9.964304436038681,0.4096069214975298
1560244289096335104,-0.0035582272112224017,0.0017548812284567247,-1.7486776268924586e-05,0.08212782368917619,-9.953239404624375,0.41393537827625787
1560244289101342464,-0.0018128979727480327,0.0017548812284567247,-1.7486776268924586e-05,0.08550821127124472,-9.91250301823124,0.4173044904282678
1560244289106348544,-6.756874882557895e-05,9.552009991239174e-06,-1.7486776268924586e-05,0.0913412297611218,-9.920298398680732,0.47526553028234664
1560244289111354880,-0.005303556449696771,9.552009991239174e-06,-1.7486776268924586e-05,0.03814457727791632,-9.907862076679846,0.42840550238745406
1560244289116360960,-0.0035582272112224017,0.0035002105833464156,-1.7486776268924586e-05,0.056656542526905836,-9.944063659467817,0.40953164160346817
1560244289121367296,-0.0035582272112224017,9.552009991239174e-06,-0.0017628160583990392,0.0696234472013452,-9.930533123678233,0.4224291964141492
1560244289126373376,-0.005303556449696771,9.552009991239174e-06,-1.7486776268924586e-05,0.07551024521590562,-9.962089855686072,0.4480219459054858
1560244289131379456,-0.0035582272112224017,9.552009991239174e-06,-1.7486776268924586e-05,0.08170031235728702,-9.944058306033526,0.4646450784200342
1560244289136385792,-0.0018128979727480327,0.0017548812284567247,-1.7486776268924586e-05,0.05534476928650274,-9.93390186949929,0.45007865170345185
1560244289141391872,-0.005303556449696771,0.0035002105833464156,-0.0017628160583990392,0.07650534543873587,-9.907923496269255,0.4176383737340017
1560244289146397952,-0.0035582272112224017,9.552009991239174e-06,-1.7486776268924586e-05,0.0572097695311293,-9.905700997574208,0.3926903135139752
1560244289151404032,-0.0018128979727480327,-0.0034811063705510606,-1.7486776268924586e-05,0.06251108327419402,-9.937271149921603,0.43622764807296105
1560244289156410368,-0.0035582272112224017,9.552009991239174e-06,-1.7486776268924586e-05,0.07638942322233422,-9.936181207412139,0.42104531006877377
1560244289161416448,-0.0035582272112224017,9.552009991239174e-06,-0.0017628160583990392,0.07613002270891336,-9.962152541810934,0.428893994457998
1560244289166422528,-0.0035582272112224017,9.552009991239174e-06,-0.0017628160583990392,0.07274474277734654,-9.927160618403907,0.42905886114647446
1560244289171428608,-0.0035582272112224017,9.552009991239174e-06,-0.0017628160583990392,0.0646954261213041,-9.93498993774637,0.4384524933952339
1560244289176434944,-0.0035582272112224017,9.552009991239174e-06,-1.7486776268924586e-05,0.07595619540563997,-9.923736449182398,0.4344920883893974
1560244289181441024,-0.0035582272112224017,-0.0034811063705510606,-1.7486776268924586e-05,0.07679224855511013,-9.92378873264857,0.4086882328122074
1560244289186447360,-0.0018128979727480327,9.552009991239174e-06,-1.7486776268924586e-05,0.07048066613910069,-9.938353357070865,0.42915618492147845
1560244289191453440,-0.0018128979727480327,0.0017548812284567247,-1.7486776268924586e-05,0.06762264203989934,-9.923738412210657,0.4179770402313627
1560244289196454912,-0.005303556449696771,9.552009991239174e-06,-0.0035081451804580867,0.07569479501080614,-9.923736810420802,0.4425591497611216
1560244289201460992,-0.005303556449696771,9.552009991239174e-06,-0.0017628160583990392,0.056003041897624395,-9.926079520830912,0.42980987322392294
1560244289206467072,-0.0035582272112224017,9.552009991239174e-06,-1.7486776268924586e-05,0.07157230979911053,-9.952051376715556,0.43706096639888325
1560244289211473152,-0.005303556449696771,9.552009991239174e-06,-1.7486776268924586e-05,0.08297696599002094,-9.937094857759682,0.42166008854231607
1560244289216478976,-0.005303556449696771,9.552009991239174e-06,-1.7486776268924586e-05,0.07616688200135441,-9.943027441351402,0.42787198862314363
1560244289221485056,-0.005303556449696771,-0.0017357772484920134,-1.7486776268924586e-05,0.07090467598352558,-9.923737769072924,0.4493848174099575
1560244289226490880,-0.0035582272112224017,9.552009991239174e-06,-0.0017628160583990392,0.05534474034403889,-9.934014331071008,0.45007863801619163
1560244289231496704,-0.0035582272112224017,9.552009991239174e-06,-0.0017628160583990392,0.04008152089504431,-9.944065826112606,0.4348980835392099
1560244289236502784,-0.0035582272112224017,9.552009991239174e-06,-1.7486776268924586e-05,0.0761368986164967,-9.924992095210692,0.4289075858427153
1560244289241508608,-0.0035582272112224017,0.0017548812284567247,-1.7486776268924586e-05,0.06929066233062164,-9.937152201203133,0.42920998742618227
1560244289246514688,-0.005303556449696771,0.005245539588990141,-1.7486776268924586e-05,0.0564116375821059,-9.91118349748935,0.4172896010969114
1560244289251521792,-0.005303556449696771,0.0035002105833464156,-1.7486776268924586e-05,0.07352946867044932,-9.921630247860719,0.4450706170530629
1560244289256526848,-0.005303556449696771,0.0017548812284567247,-1.7486776268924586e-05,0.05908000791186136,-9.923740265406956,0.4428678050239029
1560244289261532672,-0.005303556449696771,9.552009991239174e-06,-1.7486776268924586e-05,0.0764969856559397,-9.92373656165288,0.41780153879800347
1560244289266538752,-0.0035582272112224017,9.552009991239174e-06,-1.7486776268924586e-05,0.046722063443170744,-9.938585972005,0.4302213116487303
1560244289271544576,-0.0035582272112224017,9.552009991239174e-06,-1.7486776268924586e-05,0.07712845398627766,-9.944059421975044,0.40861379159214944
1560244289276550656,-0.0018128979727480327,9.552009991239174e-06,-1.7486776268924586e-05,0.09936728558880545,-9.932403893009745,0.4192271183875901
1560244289281556480,-0.0035582272112224017,9.552009991239174e-06,-0.0017628160583990392,0.06671963102259995,-9.914894074632322,0.4495757520194222
1560244289286563584,-0.00704888568817114,9.552009991239174e-06,-0.0017628160583990392,0.059614448346545015,-9.923740304434583,0.4157614143923833
1560244289291569408,-0.005303556449696771,9.552009991239174e-06,-0.005253474418932456,0.07848893865161138,-9.946517177141056,0.4312427163873454
1560244289296575744,-0.0035582272112224017,0.0017548812284567247,-0.0035081451804580867,0.08783556766599004,-9.94004167306513,0.44053879400775764
1560244289301581568,-0.0035582272112224017,0.0017548812284567247,-0.0017628160583990392,0.07702023178346089,-9.95846081673829,0.40144120217359286
1560244289306587648,-0.005303556449696771,9.552009991239174e-06,-1.7486776268924586e-05,0.056956457822636405,-9.945876828943877,0.4279531334701699
1560244289311593472,-0.00704888568817114,0.0017548812284567247,-1.7486776268924586e-05,0.09207422748047521,-9.912903669730731,0.4126826589196226
1560244289316599296,-6.756874882557895e-05,0.0017548812284567247,-1.7486776268924586e-05,0.07613528505647797,-9.933661955567963,0.42890441639202204
1560244289321605376,-6.756874882557895e-05,0.0017548812284567247,-1.7486776268924586e-05,0.07613713233267645,-9.92373630886357,0.4289080449219559
1560244289326611200,-6.756874882557895e-05,0.0017548812284567247,-0.0017628160583990392,0.07533963225294164,-9.945434053317213,0.41143103858618013
1560244289331617280,-6.756874882557895e-05,9.552009991239174e-06,-1.7486776268924586e-05,0.05579451447621187,-9.957362051829573,0.43605537745964573
1560244289336623104,-0.005303556449696771,9.552009991239174e-06,-1.7486776268924586e-05,0.056656542526905836,-9.944063659467817,0.40953164160346817
1560244289341629440,-0.005303556449696771,9.552009991239174e-06,-1.7486776268924586e-05,0.056656542526905836,-9.944063659467817,0.40953164160346817
1560244289346635264,-0.00704888568817114,9.552009991239174e-06,0.0017278424185496989,0.05612049021759478,-9.93106583047223,0.4261547091872071
1560244289351641344,-0.00704888568817114,0.005245539588990141,-1.7486776268924586e-05,0.056054320616996306,-9.945763744965312,0.4281074023522315
1560244289356647168,-0.005303556449696771,0.0035002105833464156,-0.0035081451804580867,0.07016407745264802,-9.938697314278627,0.4494124516664059
1560244289361653248,-0.005303556449696771,0.0017548812284567247,-0.0017628160583990392,0.09571364785370759,-9.924019006252324,0.427745558573573
1560244289366659072,-0.005303556449696771,0.005245539588990141,-1.7486776268924586e-05,0.05627862218818898,-9.91139348427003,0.42139362218382065
1560244289371665152,-0.0018128979727480327,0.005245539588990141,-1.7486776268924586e-05,0.05536353701060443,-9.83228688425456,0.4501158725996918
1560244289376670976,-0.0018128979727480327,9.552009991239174e-06,-0.0035081451804580867,0.07354364869190208,-9.94438781363579,0.4149024988639746
1560244289381676800,-6.756874882557895e-05,-0.0017357772484920134,-0.0017628160583990392,0.03739297643628394,-10.137283021825729,0.4610725438678938
1560244289386682880,-0.0018128979727480327,9.552009991239174e-06,-1.7486776268924586e-05,0.04584830313894895,-10.191812277380809,0.4904017459462119
1560244289391688960,-0.005303556449696771,0.0035002105833464156,-0.0017628160583990392,0.02257037150544327,-9.910847752772662,0.41748997134144733
1560244289396695040,-0.0035582272112224017,9.552009991239174e-06,-0.0017628160583990392,0.09258397436748497,-9.693959092942432,0.44692884776484204
1560244289401700864,-6.756874882557895e-05,9.552009991239174e-06,-0.0035081451804580867,0.10350026000970257,-9.684276019170943,0.38156978715064377
1560244289406706944,-0.0018128979727480327,9.552009991239174e-06,-0.0017628160583990392,0.05600902132946301,-9.89364001569292,0.42982175240061193
1560244289411712768,-0.005303556449696771,9.552009991239174e-06,-0.0017628160583990392,0.023417982619562044,-10.142659319633909,0.4472873064331144
1560244289416718848,-0.0035582272112224017,0.0017548812284567247,-1.7486776268924586e-05,0.09782807143219475,-10.14728822716434,0.4698245128422101
1560244289421724672,-0.005303556449696771,9.552009991239174e-06,-0.0017628160583990392,0.1354715111227514,-10.029406800010767,0.4584729810635462
1560244289426730752,-0.0035582272112224017,0.0017548812284567247,-1.7486776268924586e-05,0.11146458216105826,-9.722378852106264,0.4199027051058952
1560244289431736832,-0.0035582272112224017,0.0035002105833464156,-0.0017628160583990392,0.04266669155404931,-9.725053084984413,0.39373046772437925
1560244289436742912,-0.0035582272112224017,0.005245539588990141,-0.0017628160583990392,0.02109349900734257,-9.870537145186006,0.3819598690866908
1560244289441748736,-0.0035582272112224017,0.0035002105833464156,-0.0017628160583990392,0.05298112570988396,-10.216585182721962,0.4768128333128098
1560244289446755840,-0.0035582272112224017,9.552009991239174e-06,-0.0017628160583990392,0.09018484690366602,-10.252112727778718,0.4541958697109714
1560244289451760896,-0.0018128979727480327,9.552009991239174e-06,-0.0017628160583990392,0.11556877634724673,-10.06079635192202,0.4266747386303677
1560244289456766720,-0.0018128979727480327,0.0035002105833464156,-1.7486776268924586e-05,0.07702417721734477,-9.73913702535468,0.4026509411140459
1560244289461773568,-0.005303556449696771,0.00699086882746451,-1.7486776268924586e-05,0.06589822375798066,-9.579808765403051,0.38901157398324104
1560244289466779392,-0.005303556449696771,0.005245539588990141,-1.7486776268924586e-05,0.023468102182206962,-9.779602458733601,0.3735275508878205
1560244289471785472,-0.0035582272112224017,0.0017548812284567247,-0.0017628160583990392,0.04796960136774095,-10.049771662090901,0.4706081160282294
1560244289476791552,-0.0018128979727480327,9.552009991239174e-06,-0.0017628160583990392,0.12718721854544188,-10.216582984527754,0.4586972370447851
1560244289481797632,-0.0018128979727480327,9.552009991239174e-06,-1.7486776268924586e-05,0.11752045438273666,-10.116657006930641,0.39148512409223196
1560244289486803456,-0.0018128979727480327,9.552009991239174e-06,-1.7486776268924586e-05,0.0743299995898522,-9.84963035060545,0.5250221098785688
1560244289491809536,-0.0018128979727480327,9.552009991239174e-06,-1.7486776268924586e-05,0.03622505990586037,-9.695028864006392,0.4211388561782257
1560244289496815360,-0.0018128979727480327,0.0035002105833464156,-1.7486776268924586e-05,0.026560955813980665,-9.7902393604398,0.39362442146104826
1560244289501821440,-0.005303556449696771,0.0035002105833464156,-1.7486776268924586e-05,0.027536027735531803,-9.960599375702376,0.564989127356542
1560244289506827264,-0.005303556449696771,-0.0017357772484920134,-1.7486776268924586e-05,0.11644931425432078,-10.06599283494428,0.47475070477751397
1560244289511833344,-0.005303556449696771,-0.0017357772484920134,-1.7486776268924586e-05,0.10227393604315277,-10.058705029705266,0.370039927830988
1560244289516839168,-0.0035582272112224017,9.552009991239174e-06,-1.7486776268924586e-05,0.019459146858868806,-9.929181705528547,0.5419430569933414
1560244289521844992,-0.0035582272112224017,9.552009991239174e-06,-1.7486776268924586e-05,0.01651270597050247,-9.81627887762635,0.40830348738015987
1560244289526851328,-0.005303556449696771,0.0017548812284567247,-1.7486776268924586e-05,-0.0013179522423397525,-9.776538054863995,0.3383711911835243
1560244289531857152,-0.005303556449696771,9.552009991239174e-06,-0.0017628160583990392,0.022185020458742256,-9.94059912673781,0.48974264586837823
1560244289536863232,-0.005303556449696771,9.552009991239174e-06,-0.0017628160583990392,0.08535842037085001,-10.020267526920582,0.4537765806453664
1560244289541869056,-0.0035582272112224017,9.552009991239174e-06,-1.7486776268924586e-05,0.11823031849760651,-10.106068881173172,0.3522313494393495
1560244289546875136,-0.0018128979727480327,9.552009991239174e-06,-1.7486776268924586e-05,0.07972533516404931,-10.048994347323125,0.5580025573187205
1560244289551880960,-0.0035582272112224017,-0.0017357772484920134,-1.7486776268924586e-05,0.07855302794067706,-9.893141816872033,0.45906483210501375
1560244289556887040,-0.0018128979727480327,9.552009991239174e-06,-1.7486776268924586e-05,0.07902074683688118,-9.798625901462122,0.426040567532883
1560244289561892864,-6.756874882557895e-05,9.552009991239174e-06,-0.0017628160583990392,0.09668636572517476,-9.830499674714392,0.5899591828788929
1560244289566898944,-0.0018128979727480327,9.552009991239174e-06,-0.0017628160583990392,0.13348127320466746,-9.935539583579148,0.5204683648619778
1560244289571905024,-0.0035582272112224017,9.552009991239174e-06,-1.7486776268924586e-05,0.15010295056679523,-9.980385258886182,0.4396794954500906
1560244289576911104,-0.005303556449696771,9.552009991239174e-06,-1.7486776268924586e-05,0.09131548011875303,-10.06448891414117,0.6260937885039568
1560244289581916928,-0.005303556449696771,9.552009991239174e-06,-1.7486776268924586e-05,0.07714577692336745,-9.958943710273463,0.5548651439862258
1560244289586923008,-0.005303556449696771,9.552009991239174e-06,-0.0017628160583990392,0.06279516330186118,-9.861470264690771,0.47130819858344886
1560244289591928832,-0.005303556449696771,0.0017548812284567247,-0.0017628160583990392,0.047032233598541515,-9.858917302462755,0.5893773805907749
1560244289596934912,-0.0035582272112224017,0.0035002105833464156,-1.7486776268924586e-05,0.09138151997595824,-9.9052109600238,0.5240646804363276
1560244289601940992,-0.0035582272112224017,9.552009991239174e-06,-1.7486776268924586e-05,0.06647485456517177,-9.94609004167481,0.4995015194536084
1560244289606947584,-0.005303556449696771,9.552009991239174e-06,-1.7486776268924586e-05,0.03736386935567511,-10.010932446724539,0.6042978276198155
1560244289611952896,-0.005303556449696771,0.0017548812284567247,-0.0035081451804580867,0.031105311323607866,-10.006598644305175,0.5772572495152314
1560244289616959744,-0.0035582272112224017,0.0035002105833464156,-0.0035081451804580867,0.030890543123814174,-9.911618238618432,0.45934680341555895
1560244289621965056,-0.005303556449696771,9.552009991239174e-06,-0.0017628160583990392,0.022474498334805016,-9.924580134082372,0.5211576442870025
1560244289626971648,-0.005303556449696771,9.552009991239174e-06,-1.7486776268924586e-05,0.048683473139199615,-9.918822509851738,0.505566538567647
1560244289631977728,-0.0035582272112224017,9.552009991239174e-06,-1.7486776268924586e-05,0.09548108056524564,-9.88601667531572,0.4302435067516729
1560244289636983552,-0.0035582272112224017,-0.0017357772484920134,-1.7486776268924586e-05,0.07354002243763541,-9.964383119220981,0.5088149739720234
1560244289641989632,-0.0018128979727480327,-0.0034811063705510606,-1.7486776268924586e-05,0.049116691655073076,-9.964387188283595,0.5275788127176445
1560244289646995456,-0.0035582272112224017,9.552009991239174e-06,-1.7486776268924586e-05,0.035525534928449995,-9.946697055936497,0.4412006081369577
1560244289652001536,-0.005303556449696771,9.552009991239174e-06,-1.7486776268924586e-05,0.056176261017324515,-9.926764259311147,0.5167952131243156
1560244289657007360,-0.0035582272112224017,9.552009991239174e-06,-1.7486776268924586e-05,0.06388242660735348,-9.926712732092051,0.5422696668854069
1560244289662013696,-0.0035582272112224017,9.552009991239174e-06,-1.7486776268924586e-05,0.05225737841507722,-9.917745389387544,0.5454624231709672
1560244289667019520,-0.0035582272112224017,9.552009991239174e-06,-0.0017628160583990392,0.07185412463871149,-9.943717733917174,0.5505457085900547
1560244289672025344,-0.0018128979727480327,-0.0017357772484920134,-0.0017628160583990392,0.05091663666464418,-9.94406351201506,0.5866820602352015
1560244289677031424,-6.756874882557895e-05,-0.005226435841856073,-1.7486776268924586e-05,0.04124948787563633,-9.944065559815378,0.5503206777460565
1560244289682037248,-0.0018128979727480327,-0.0017357772484920134,-0.0017628160583990392,0.04689715222350932,-9.944064469208273,0.5976319165412032
1560244289687043328,-0.0035582272112224017,9.552009991239174e-06,-1.7486776268924586e-05,0.036497724738293366,-9.94016456361407,0.6494573863793153
1560244289692049152,-0.005303556449696771,9.552009991239174e-06,-1.7486776268924586e-05,0.11074370824291033,-9.895807035523639,0.6019764712505121
1560244289697055232,-0.005303556449696771,9.552009991239174e-06,-1.7486776268924586e-05,0.0967363104937283,-9.896343254175187,0.6295441581723269
1560244289702061056,-0.0035582272112224017,-0.0017357772484920134,-1.7486776268924586e-05,0.03407989892411097,-9.903420965950094,0.6158023300474467
1560244289707067392,-0.005303556449696771,9.552009991239174e-06,-0.0035081451804580867,0.03126828632988916,-9.94406706573427,0.5726074985709784
1560244289712073216,-0.005303556449696771,-0.0017357772484920134,-0.0017628160583990392,0.04106910829507832,-9.953960688013469,0.5721643471374457
1560244289717079296,-0.0035582272112224017,-0.0017357772484920134,-1.7486776268924586e-05,0.08270234394387858,-9.979928413145936,0.554802661365113
1560244289722085120,-0.00704888568817114,-0.0017357772484920134,-1.7486776268924586e-05,0.09303985306367356,-9.942302017138344,0.527606822005893
1560244289727091200,-0.008794214926645508,-0.0034811063705510606,-0.0017628160583990392,0.08783257702249542,-9.909942953922153,0.4891154577324822
1560244289732097024,-0.00704888568817114,-0.0034811063705510606,-0.0017628160583990392,0.049238601907851884,-9.935923817236848,0.5151045031786694
1560244289737103104,-0.0018128979727480327,-0.005226435841856073,-1.7486776268924586e-05,0.050249799236693315,-9.961902164453301,0.5312653795091032
1560244289742109184,-6.756874882557895e-05,-0.005226435841856073,-1.7486776268924586e-05,0.07090831985357111,-9.984706536376294,0.49300760138223665
1560244289747115008,-0.0035582272112224017,-0.0034811063705510606,-0.0017628160583990392,0.07901988006734642,-9.993529959936467,0.5273003997185444
1560244289752122112,-0.0035582272112224017,9.552009991239174e-06,-1.7486776268924586e-05,0.11338989714462988,-9.976055717460861,0.5198198177251673
1560244289757127168,-0.0018128979727480327,9.552009991239174e-06,-1.7486776268924586e-05,0.11313006576983717,-9.90398309935854,0.5282768613222438
1560244289762134016,-0.0018128979727480327,9.552009991239174e-06,-1.7486776268924586e-05,0.04599531351149278,-9.9088832361737,0.571960381248119
1560244289767139072,-0.0018128979727480327,9.552009991239174e-06,-1.7486776268924586e-05,0.030553630081739048,-9.923744386088153,0.5947870964994054
1560244289772145152,-6.756874882557895e-05,9.552009991239174e-06,-1.7486776268924586e-05,0.06318201114753744,-9.940507692093119,0.6116623372389056
1560244289777151744,-0.0018128979727480327,9.552009991239174e-06,-1.7486776268924586e-05,0.09101844709572254,-9.982597253743567,0.6540284251445101
1560244289782157824,-0.0035582272112224017,9.552009991239174e-06,-1.7486776268924586e-05,0.11624923661368981,-9.956617802809903,0.6685346891970391
1560244289787163648,-0.005303556449696771,9.552009991239174e-06,-1.7486776268924586e-05,0.06331615958080843,-9.903825409761875,0.6387959918099158
1560244289792169728,-0.0035582272112224017,9.552009991239174e-06,-1.7486776268924586e-05,0.028689297158570472,-9.902165872553658,0.6524567382784728
1560244289797175808,-0.0035582272112224017,-0.0034811063705510606,-0.0017628160583990392,0.050613771952011645,-9.899016557165144,0.730665464561573
1560244289802181888,-0.0018128979727480327,9.552009991239174e-06,-0.0017628160583990392,0.08753743872743061,-9.893146666041604,0.6914545343549707
1560244289807187712,-0.005303556449696771,9.552009991239174e-06,-1.7486776268924586e-05,0.09298482219141987,-9.919125462084674,0.6701179585240498
1560244289812193536,-0.00704888568817114,9.552009991239174e-06,-1.7486776268924586e-05,0.0876924148076959,-9.943008567828935,0.660646067783346
1560244289817199616,-0.005303556449696771,9.552009991239174e-06,-0.0017628160583990392,0.07500882981472926,-9.937142861754362,0.6683095542832306
1560244289822205440,-0.0035582272112224017,0.0035002105833464156,-0.0035081451804580867,0.07655637271918546,-9.952026787174985,0.6590790589261744
1560244289827211520,-0.0018128979727480327,0.0017548812284567247,-1.7486776268924586e-05,0.06869513673228965,-9.926046167761681,0.6585757129653996
1560244289832217344,-0.0018128979727480327,9.552009991239174e-06,-1.7486776268924586e-05,0.09920425931129236,-9.92707755672362,0.6438722328386917
1560244289837223424,-0.005303556449696771,0.0017548812284567247,-1.7486776268924586e-05,0.13262854059663232,-9.953050778355093,0.6175097241853664
1560244289842229504,-0.0018128979727480327,0.0035002105833464156,-1.7486776268924586e-05,0.08078913189602156,-9.949723002308003,0.6311116707279404
1560244289847235584,-0.0018128979727480327,0.0035002105833464156,-1.7486776268924586e-05,0.06956506547726411,-9.9440592563074,0.6316170293763854
1560244289852241408,-0.0018128979727480327,0.0035002105833464156,-1.7486776268924586e-05,0.06956506547726411,-9.9440592563074,0.6316170293763854
1560244289857247488,-0.0018128979727480327,0.005245539588990141,-1.7486776268924586e-05,0.07029765337217538,-9.932758389580906,0.6090762751214847
1560244289862253312,-0.0018128979727480327,0.00873619806593888,-1.7486776268924586e-05,0.08766935709426324,-9.957636319281704,0.5903158382255349
1560244289867259392,-0.005303556449696771,0.00699086882746451,-1.7486776268924586e-05,0.09189415882511502,-9.928308689545103,0.6329004473394524
1560244289872265216,-0.0035582272112224017,0.00699086882746451,-1.7486776268924586e-05,0.09343350821570037,-9.964379528019064,0.6507814314028572
1560244289877271296,-0.0018128979727480327,0.005245539588990141,-1.7486776268924586e-05,0.041963276491364936,-9.95078936936983,0.6530941629459535
1560244289882278144,-0.0018128979727480327,0.005245539588990141,-1.7486776268924586e-05,0.027081400265240252,-9.963325362008277,0.7017096657724208
1560244289887283200,-0.0018128979727480327,0.005245539588990141,-1.7486776268924586e-05,0.06278136218640482,-9.955206472014542,0.7008056929071599
1560244289892290304,-6.756874882557895e-05,0.005245539588990141,-0.0017628160583990392,0.05564769813244605,-9.913495026090528,0.7536230264008271
1560244289897295360,-0.0035582272112224017,0.00699086882746451,-1.7486776268924586e-05,0.04969933407479454,-9.903417890836394,0.7596868474636084
1560244289902301184,-0.005303556449696771,0.005245539588990141,-0.0017628160583990392,0.02557327707962561,-9.90465145418807,0.7486109310602066
1560244289907308032,-0.005303556449696771,0.005245539588990141,-0.0017628160583990392,0.02349718014325911,-9.916857515826239,0.8126112065076981
1560244289912314112,-0.0018128979727480327,0.0035002105833464156,-1.7486776268924586e-05,0.02346606689885579,-9.92850060712258,0.8135008340925394
1560244289917319168,-0.0018128979727480327,0.0035002105833464156,-1.7486776268924586e-05,0.022545691700959294,-9.907688438931963,0.8420324271983337
1560244289922325248,-0.005303556449696771,0.0017548812284567247,-1.7486776268924586e-05,0.023289310362813696,-9.923744410594892,0.8189850797985432
1560244289927331840,-0.0035582272112224017,9.552009991239174e-06,0.0017278424185496989,0.024078820493430884,-9.923744600564328,0.7946183781068618
1560244289932338176,-0.0018128979727480327,0.0017548812284567247,-1.7486776268924586e-05,0.009027376679487375,-9.923747932237735,0.8063973948568903
1560244289937344000,-0.0018128979727480327,0.00699086882746451,-0.0017628160583990392,0.004903681964053102,-9.92390985100871,0.7659377023434053
1560244289942350080,-0.0035582272112224017,0.00699086882746451,-0.0017628160583990392,0.00554944721576314,-9.955701073842699,0.7458147898589221
1560244289947355904,-0.005303556449696771,0.00699086882746451,-0.0017628160583990392,0.017275480582403812,-9.973250102541137,0.7338625232599131
1560244289952361984,-0.0035582272112224017,0.005245539588990141,-0.0017628160583990392,0.04329666959797103,-9.964388459781203,0.7238769990767391
1560244289957367808,-0.005303556449696771,0.0035002105833464156,-1.7486776268924586e-05,0.044786537658665804,-9.944064209211017,0.7011374109970314
1560244289962373632,-0.005303556449696771,0.0035002105833464156,-1.7486776268924586e-05,0.027132287695745976,-9.944067460134784,0.7002560997379833
1560244289967379712,-0.005303556449696771,0.0017548812284567247,-1.7486776268924586e-05,0.012718690714944513,-9.930316457658165,0.7252607174599733
1560244289972385536,-0.0018128979727480327,9.552009991239174e-06,-1.7486776268924586e-05,0.02480555772159306,-9.962562246565696,0.744038176155273
1560244289977391872,-6.756874882557895e-05,0.0017548812284567247,-1.7486776268924586e-05,0.05101972641334151,-9.948805713617215,0.7282600635571681
1560244289982397696,-6.756874882557895e-05,0.0017548812284567247,-0.0017628160583990392,0.05463840482816301,-9.974782793089897,0.7746743940799286
1560244289987403776,-6.756874882557895e-05,9.552009991239174e-06,-1.7486776268924586e-05,0.0597534634126186,-9.936547586926373,0.8041183212084806
1560244289992409600,-6.756874882557895e-05,9.552009991239174e-06,-1.7486776268924586e-05,0.061296239409808204,-9.922348749057248,0.8445388712230886
1560244289997415680,-6.756874882557895e-05,-0.005226435841856073,-1.7486776268924586e-05,0.03511369305791604,-9.896379547417315,0.8597472062131902
1560244290002421504,-6.756874882557895e-05,-0.006971765080330442,-1.7486776268924586e-05,0.008519260929157068,-9.895797009262683,0.8873994161633806
1560244290007427584,-0.0035582272112224017,-0.0017357772484920134,-1.7486776268924586e-05,0.0003681997180272823,-9.903426913927678,0.9060398605314145
1560244290012433408,-0.0018128979727480327,-0.0017357772484920134,-0.0035081451804580867,0.004481569406777482,-9.920072125268645,0.8912331693773421
1560244290017439488,-0.0035582272112224017,-0.00871709431880481,-0.0017628160583990392,0.02103939402379381,-9.912751010411977,0.888490412049895
1560244290022445568,-0.0035582272112224017,-0.006971765080330442,-1.7486776268924586e-05,0.021750789632310228,-9.908765283816063,0.8665590876883204
1560244290027452672,-0.0018128979727480327,9.552009991239174e-06,-1.7486776268924586e-05,0.0022573308721850283,-9.94343850392275,0.8474933789122899
1560244290032458496,-0.0018128979727480327,9.552009991239174e-06,-1.7486776268924586e-05,0.001810959161517592,-9.903426079792533,0.8615124929108937
1560244290037463552,-0.0035582272112224017,-0.0034811063705510606,-0.0017628160583990392,0.014905250847613329,-9.9266563615214,0.8119062437830272
1560244290042470400,-0.0035582272112224017,-0.005226435841856073,-0.0035081451804580867,0.0928122152059383,-9.978601043104991,0.7823782261497235
1560244290047476224,-0.0035582272112224017,-0.0017357772484920134,-0.0017628160583990392,0.16224265592512047,-9.926324139887289,0.7943410817098164
1560244290052481536,-0.005303556449696771,-0.005226435841856073,-0.0017628160583990392,0.11365183521248558,-9.944051913689416,0.7447704379605503
1560244290057488128,-0.0018128979727480327,-0.005226435841856073,-0.0017628160583990392,0.0670590289087968,-9.944059744265633,0.7089605168337897
1560244290062494208,-6.756874882557895e-05,-0.0034811063705510606,-1.7486776268924586e-05,0.0478753605968716,-9.963633780699267,0.7034298115611197
1560244290067500288,-0.0035582272112224017,-0.0017357772484920134,-1.7486776268924586e-05,0.09678842570033458,-9.944054599731796,0.7110017099490372
1560244290072506368,-0.0035582272112224017,-0.0034811063705510606,-0.0017628160583990392,0.12600842090992237,-9.965156899458767,0.7509222580763488
1560244290077512192,-6.756874882557895e-05,-0.0034811063705510606,-1.7486776268924586e-05,0.07805681804912896,-9.968500227199462,0.7466618291719691
1560244290082518272,-6.756874882557895e-05,9.552009991239174e-06,-1.7486776268924586e-05,0.024368383864945692,-9.961329591296105,0.7854533377754324
1560244290087524096,-0.0018128979727480327,9.552009991239174e-06,-0.0017628160583990392,0.03103113737642092,-9.916557431687178,0.7994861050600746
1560244290092530176,-0.0018128979727480327,9.552009991239174e-06,-1.7486776268924586e-05,0.08219429278745118,-9.903411765803643,0.7977861581402839
1560244290097536000,-0.0018128979727480327,9.552009991239174e-06,-1.7486776268924586e-05,0.06766595596645944,-9.921909474087188,0.8019488965834575
1560244290102541824,-0.0018128979727480327,9.552009991239174e-06,-0.0017628160583990392,0.06267585255977055,-9.903414825669532,0.8444840648911679
1560244290107547904,-6.756874882557895e-05,9.552009991239174e-06,-0.0035081451804580867,0.0526736375220049,-9.912892894312028,0.863806057701071
1560244290112553984,-6.756874882557895e-05,9.552009991239174e-06,-1.7486776268924586e-05,0.05572671915056081,-9.90861020543224,0.9003469720549239
1560244290117560064,-0.0018128979727480327,9.552009991239174e-06,-1.7486776268924586e-05,0.021314130504752265,-9.90387842960141,0.8661257291933938
1560244290122565888,-0.0018128979727480327,-0.0017357772484920134,-1.7486776268924586e-05,0.0026685347054195767,-9.911524993125528,0.8349960748688627
1560244290127571968,-0.0018128979727480327,-0.0034811063705510606,-0.0017628160583990392,0.026517725129413087,-9.906627514219442,0.8173374687579966
1560244290132577792,-0.0035582272112224017,-0.0017357772484920134,-0.0017628160583990392,0.07826383522268895,-9.941151719874663,0.8061814304425837
1560244290137583872,-0.0035582272112224017,9.552009991239174e-06,-1.7486776268924586e-05,0.09880955536777504,-9.944054631541372,0.8023644162119807
1560244290142589696,-0.0035582272112224017,0.0035002105833464156,-1.7486776268924586e-05,0.064796432083463,-9.944059958825742,0.7787906394833661
1560244290147595776,-0.005303556449696771,0.0035002105833464156,-0.0017628160583990392,0.051576692981944346,-9.930007967854888,0.757760022564331
1560244290152601600,-0.005303556449696771,0.0035002105833464156,-0.0017628160583990392,0.12264354068631769,-9.88430540189466,0.780466042865071
1560244290157607680,-0.0018128979727480327,9.552009991239174e-06,-0.0035081451804580867,0.1163688818714747,-9.903405446386184,0.7408658650690333
1560244290162614784,-0.0018128979727480327,9.552009991239174e-06,-0.0035081451804580867,0.07583246911059431,-9.935515411598999,0.732012986820877
1560244290167619584,-0.0035582272112224017,0.0035002105833464156,-0.0017628160583990392,0.06555182400212908,-9.948034539456653,0.7554527339479469
1560244290172625664,-0.005303556449696771,0.005245539588990141,-0.0017628160583990392,0.06831877730762745,-10.00166697775984,0.7210663903826907
1560244290177632768,-0.005303556449696771,0.005245539588990141,-0.0017628160583990392,0.10170208554257304,-9.964377559697468,0.7083270288639776
1560244290182638592,-0.0035582272112224017,0.0035002105833464156,-1.7486776268924586e-05,0.11413325451651236,-9.977367518824998,0.7206961748284005
1560244290187644416,-6.756874882557895e-05,0.0035002105833464156,-1.7486776268924586e-05,0.12414271086175642,-9.928770198528756,0.7574013183484092
1560244290192650496,-6.756874882557895e-05,0.005245539588990141,-0.0035081451804580867,0.05837655967521195,-9.927442546422917,0.7508361244942489
1560244290197940736,-0.0018128979727480327,0.005245539588990141,-0.0017628160583990392,0.05297971173422189,-9.924813259713229,0.7841842201339495
1560244290202947072,-0.0018128979727480327,0.00699086882746451,-0.0017628160583990392,0.12869849894967117,-9.933958063363182,0.8264362805005251
1560244290207953152,-0.0035582272112224017,0.005245539588990141,-1.7486776268924586e-05,0.10121652055555141,-9.883692000912733,0.8219163801843167
1560244290212959232,-0.005303556449696771,0.00699086882746451,-1.7486776268924586e-05,0.01732262485641992,-9.890907223495013,0.8122708989471302
1560244290217965312,-0.005303556449696771,0.00699086882746451,-1.7486776268924586e-05,0.02692478703368347,-9.886602552567874,0.8139849917977537
1560244290222971392,-0.0035582272112224017,0.010481527304413249,-1.7486776268924586e-05,0.07809521736601632,-9.920980804647245,0.8208008124685954
1560244290227977472,-0.0018128979727480327,0.012226856542887618,-0.0035081451804580867,0.13134174401562876,-9.923725845100282,0.7633120217283432
1560244290232983552,-0.0035582272112224017,0.010481527304413249,-0.0017628160583990392,0.1571209389747113,-9.923721484166691,0.7710038053941148
1560244290237989632,-0.0035582272112224017,0.00699086882746451,-1.7486776268924586e-05,0.09002042835941143,-9.90953201382833,0.7481424507205974
1560244290242995712,-0.0035582272112224017,0.012226856542887618,-1.7486776268924586e-05,0.04756544216220929,-9.962973517951054,0.7043827557958843
1560244290248002048,-0.0035582272112224017,0.010481527304413249,-1.7486776268924586e-05,0.07289111507736007,-9.949244261683855,0.6872358105528297
1560244290253008128,-0.005303556449696771,0.010481527304413249,-1.7486776268924586e-05,0.08809870950511914,-9.953540149665145,0.6800373332236658
1560244290258014208,-0.005303556449696771,0.012226856542887618,-1.7486776268924586e-05,0.088177285905327,-9.960552246000804,0.6775689623781913
1560244290263020288,-0.008794214926645508,0.012226856542887618,-1.7486776268924586e-05,0.08799086048598292,-9.981057324414932,0.6831981517556504
1560244290268026368,-0.0035582272112224017,0.012226856542887618,-1.7486776268924586e-05,0.09529608643739591,-9.93657423756105,0.6864112634096318
1560244290273032192,-6.756874882557895e-05,0.01571751408851378,-1.7486776268924586e-05,0.09604919840914201,-9.94999553149887,0.6542511218685267
1560244290278038272,-0.0035582272112224017,0.013972185781361987,-1.7486776268924586e-05,0.06952082648913688,-9.9643834561703,0.6799141717969271
1560244290283044352,-0.005303556449696771,0.013972185781361987,-0.0017628160583990392,0.04567058992848035,-9.99680681146969,0.6226701027660216
1560244290288050688,-0.0035582272112224017,0.017462844258310725,-0.0017628160583990392,0.05781014683052073,-9.974152790633191,0.6479029577662646
1560244290293057792,-0.0018128979727480327,0.017462844258310725,-1.7486776268924586e-05,0.04335531725424019,-9.953861086542776,0.6481518229950214
1560244290298063872,-6.756874882557895e-05,0.012226856542887618,-1.7486776268924586e-05,0.00854922196465679,-9.981694640879715,0.6530751603064353
1560244290303069952,-0.0035582272112224017,0.00873619806593888,-1.7486776268924586e-05,0.048318447916200484,-9.929044646407622,0.5995710496211181
1560244290308075008,-0.0018128979727480327,0.010481527304413249,-0.0017628160583990392,0.1423145437025333,-9.972639743331861,0.6156423900440263
1560244290313081856,-6.756874882557895e-05,0.00873619806593888,-1.7486776268924586e-05,0.15000492628201553,-9.999794332375167,0.6305898459367619
1560244290318087936,-6.756874882557895e-05,0.00873619806593888,-1.7486776268924586e-05,0.05737047119242647,-9.975591851450181,0.6366918132173739
1560244290323094016,-6.756874882557895e-05,0.00873619806593888,-1.7486776268924586e-05,-0.0383555102151774,-9.94114459736217,0.6841390773263594
1560244290328100352,-6.756874882557895e-05,0.00699086882746451,-1.7486776268924586e-05,-0.030573631456511922,-9.93571357246761,0.6926706999014389
1560244290333106432,-6.756874882557895e-05,0.005245539588990141,-1.7486776268924586e-05,0.06533613534706151,-9.943733701325229,0.7222458820785365
1560244290338112512,-0.0018128979727480327,0.005245539588990141,-1.7486776268924586e-05,0.13741131760746722,-9.872436191174831,0.695107939228544
1560244290343118592,-0.0035582272112224017,0.0035002105833464156,-1.7486776268924586e-05,0.06204876189690063,-9.825985238254548,0.7651892407065389
1560244290348124672,-0.0035582272112224017,0.0017548812284567247,0.0017278424185496989,-0.023941376860861903,-9.828600303661531,0.7545521286926996
1560244290353130752,-0.0018128979727480327,9.552009991239174e-06,-1.7486776268924586e-05,-0.021054450680208545,-9.905385486979233,0.8038575545575939
1560244290358136832,-0.005303556449696771,9.552009991239174e-06,-1.7486776268924586e-05,0.12570032858188424,-9.923726825990183,0.7606820188613317
