#timestamp [ns],w_RS_S_x [rad s^-1],w_RS_S_y [rad s^-1],w_RS_S_z [rad s^-1],a_RS_S_x [m s^-2],a_RS_S_y [m s^-2],a_RS_S_z [m s^-2]
1560000083922782464,0.015707962229498662,0.01049106022946944,-0.0017453292821301147,0.12870891553070843,-9.74979627604104,0.6807270250434764
1560000083927789568,0.015707962229498662,0.012236389467943809,-0.003490658404189162,0.13602310265778583,-9.755255970308925,0.69580276807216
1560000083932796928,0.013962633922346868,0.012236389467943809,-0.0017453292821301147,0.1901714893169095,-9.84765431588561,0.8051528519007038
1560000083937805056,0.01047197544539813,0.013981718706418178,-0.005235987642663531,0.21171911363528512,-9.775886655691163,0.9339368381518325
1560000083942811136,0.012217304683872499,0.012236389467943809,0.0,0.132678322540379,-9.739970534904165,0.9179491026325425
1560000083947819520,0.012217304683872499,0.013981718706418178,0.0,0.04050859006645051,-9.580491810171049,0.9803348830536367
1560000083952826624,0.00872664620692376,0.017472377183366916,-0.0017453292821301147,0.05094249634038942,-9.570117043633248,1.0816473195497538
1560000083957833984,0.0034906584915006533,0.013981718706418178,0.0,0.13764588249198745,-9.695901176967697,1.1185731292301333
1560000083962841088,0.0,0.017472377183366916,0.0,0.10087338036264674,-9.539600256185627,1.0221693261145055
1560000083967848192,0.0,0.017472377183366916,0.0,0.022861683633630038,-9.53018065449082,1.0602845626534887
1560000083972855552,-0.005235987700871192,0.017472377183366916,-0.0017453292821301147,0.06647177688331113,-9.501278835957036,1.1244805302784444
1560000083977862912,-0.00872664617781993,0.017472377183366916,-0.0017453292821301147,0.1900399593645264,-9.713990665871547,1.096428494993102
1560000083982869760,-0.00872664617781993,0.01921770735316386,-0.0017453292821301147,0.13993491180114653,-9.694629234523102,0.89712611548463
1560000083987877120,-0.012217304654768668,0.01921770735316386,-0.0017453292821301147,0.015806256326716527,-9.741238553307594,0.867318957300128
1560000083992884224,-0.01919862253998872,0.017472377183366916,-0.0017453292821301147,0.0476562048771882,-9.795250039059399,0.8546360181960767
1560000083997892608,-0.020943950847140513,0.01921770735316386,0.0,0.14131821408794998,-9.757269728326825,0.7090101637973283
1560000084002899712,-0.022689279154292308,0.020963035660315654,0.0,0.09738144752868319,-9.8483859043859,0.5607216653634768
1560000084007906816,-0.01919862253998872,0.020963035660315654,0.0,-0.015526420901771615,-9.821552699673767,0.46138104464571417
1560000084012914176,-0.01919862253998872,0.01921770735316386,0.0,-0.009848964025907798,-9.903178966044134,0.3982407891017525
1560000084017921536,-0.017453292370191775,0.017472377183366916,-0.0017453292821301147,0.11295989541682488,-9.83865835224052,0.24481275704024769
1560000084022928384,-0.013962633893243037,0.017472377183366916,-0.0017453292821301147,0.29940585984636653,-9.949968693277528,0.22056905393808982
1560000084027935744,-0.012217304654768668,0.017472377183366916,0.0,0.31455724284549136,-10.012907933074661,0.18852069000316474
1560000084032943104,-0.010471975416294299,0.01921770735316386,0.0,0.11445009528052268,-9.996019228393807,0.14680548894191298
1560000084037951232,-0.005235987700871192,0.024453694137264392,0.0,-0.0055463492673282384,-10.038336447864907,0.13299745224373954
1560000084042958592,-0.003490658462396823,0.020963035660315654,0.0,0.0499170341021056,-9.942085081232129,0.14289295102610738
1560000084047965440,0.0,0.013981718706418178,0.0,0.2021706502734365,-9.931934554927905,0.2698183182657763
1560000084052972800,0.0,0.012236389467943809,0.0,0.2849593893126291,-9.92286901704417,0.26846236830832915
1560000084057980160,0.0017453292530262843,0.017472377183366916,0.0,0.12592096973570546,-9.89807956527503,0.3453981501679324
1560000084062987264,0.005235987729975022,0.02270836396746745,0.0,-0.03450234692315381,-9.879945165715238,0.5074414360469512
1560000084067994368,0.006981316968449391,0.024453694137264392,-0.0017453292821301147,0.026378403350804606,-9.828029204722178,0.6072894967081616
1560000084073001728,0.00872664620692376,0.02270836396746745,0.0,0.2119701467950349,-9.79630238334402,0.6072148667513928
1560000084078009856,0.01047197544539813,0.017472377183366916,0.0,0.27816301348764266,-9.778434083520297,0.7450025386133208
1560000084083017216,0.01047197544539813,0.017472377183366916,0.0,0.12228839598381729,-9.787411661115001,0.8224388275307675
1560000084088024064,0.00872664620692376,0.020963035660315654,0.0,0.04132657135404184,-9.706827296720716,0.8293755884370786
1560000084093031424,0.006981316968449391,0.020963035660315654,0.0,0.05822050920307817,-9.635000174861599,0.8566330860732647
1560000084098038784,0.005235987729975022,0.01921770735316386,0.0,0.028380596088299813,-9.607622902765327,0.9417505022780384
1560000084103045888,0.0034906584915006533,0.017472377183366916,-0.0017453292821301147,0.013334285115262735,-9.671772820668625,1.0007701448239612
1560000084108052992,0.0017453292530262843,0.01921770735316386,0.0,0.05015656801902935,-9.664704970501985,0.9621245779895838
1560000084113060352,0.0,0.01921770735316386,-0.0017453292821301147,0.09618956559883433,-9.695961943524075,0.9596106826035093
1560000084118067200,-0.003490658462396823,0.01921770735316386,-0.0017453292821301147,0.12234967549051398,-9.695957024511234,1.002105739314879
1560000084123074816,-0.00872664617781993,0.01921770735316386,-0.0017453292821301147,0.09251658917944315,-9.676982870081618,0.9978111463585062
1560000084128081920,-0.006981316939345561,0.02270836396746745,-0.003490658404189162,0.06159207451717247,-9.674970506385021,0.9454392784055216
1560000084133090048,-0.010471975416294299,0.020963035660315654,-0.0017453292821301147,0.025414640869618296,-9.672995197274178,0.8617879239486127
1560000084138097408,-0.013962633893243037,0.013981718706418178,0.0,0.036040628691302784,-9.760115084549538,0.8589614794823673
1560000084143104512,-0.017453292370191775,0.017472377183366916,0.0,0.032611996234040444,-9.770764292128652,0.8022097367390241
1560000084148111872,-0.017453292370191775,0.01921770735316386,0.0,0.0009730906232450659,-9.778111671407698,0.7611466494564133
1560000084153118976,-0.020943950847140513,0.017472377183366916,0.0,0.01616772082302285,-9.782087872687129,0.7495066721953312
1560000084158126080,-0.020943950847140513,0.017472377183366916,0.0,0.042958915556131974,-9.788059824997207,0.7062414714136019
1560000084163133440,-0.01919862253998872,0.017472377183366916,-0.0017453292821301147,0.04695861170590106,-9.822092545345994,0.5825925727969495
1560000084168140544,-0.017453292370191775,0.017472377183366916,-0.003490658404189162,0.02723987532910767,-9.889243241812181,0.4799261989573626
1560000084173147648,-0.013962633893243037,0.015727047013569972,0.0,-0.005985793080162803,-9.915415602178744,0.4468171132634703
1560000084178155008,-0.012217304654768668,0.013981718706418178,-0.0017453292821301147,0.024088870839516496,-9.927052359365527,0.36935563368909763
1560000084183163136,-0.012217304654768668,0.012236389467943809,-0.0017453292821301147,0.11256731243439257,-9.909354041709125,0.30535187588631185
1560000084188170496,-0.010471975416294299,0.008745730990995071,0.0,0.17815827383572694,-9.937287243663237,0.29432681286667006
1560000084193177344,-0.00872664617781993,0.012236389467943809,-0.0017453292821301147,0.15962555943600154,-9.949993311566981,0.2491411619266456
1560000084198184704,-0.0017453292239224538,0.007000401752520702,0.0,0.05305312059947134,-10.05162754433573,0.24146983377735165
1560000084203192064,-0.003490658462396823,0.007000401752520702,0.0,0.05790746631250157,-10.051626873466693,0.2718428361363153
1560000084208199168,0.0,0.01049106022946944,-0.0017453292821301147,0.09325952722871604,-10.019038054060056,0.2702700791376169
1560000084213206272,0.0034906584915006533,0.008745730990995071,0.0,0.1370746106003873,-9.963782450714147,0.3323087227811807
1560000084218214400,0.006981316968449391,0.008745730990995071,0.0,0.13246008849483729,-9.88172497778026,0.37704727446596054
1560000084223221760,0.00872664620692376,0.01049106022946944,0.0,0.0533574285085554,-9.855756557025238,0.4387554700819992
1560000084228229120,0.00872664620692376,0.01049106022946944,0.0,0.03003618570402936,-9.88564024787609,0.484001968717471
1560000084233235968,0.00872664620692376,0.007000401752520702,0.0,0.10056614856335229,-9.835978585382083,0.6523765379978531
1560000084238243328,0.012217304683872499,0.0035097435084026074,0.0,0.16373518012309976,-9.839847957527544,0.7012987318888859
1560000084243250432,0.015707962229498662,0.005255072514046333,0.0,0.1474183090448189,-9.838278256711453,0.7385719644819759
1560000084248257792,0.015707962229498662,0.01049106022946944,0.0,0.11731888150944489,-9.805610404000724,0.85599222713323
1560000084253265152,0.012217304683872499,0.012236389467943809,0.0,0.06566283602467612,-9.717806563933381,0.8641324293972055
1560000084258272256,0.01047197544539813,0.008745730990995071,0.0,0.03476587606449459,-9.651797503448735,0.9599300523343072
1560000084263280640,0.01047197544539813,0.007000401752520702,0.0,0.014861456089326281,-9.564644528852027,1.0377149563246877
1560000084268287744,0.00872664620692376,0.008745730990995071,-0.003490658404189162,0.030698321937986765,-9.591435247593202,1.0858327936040482
1560000084273294848,0.005235987729975022,0.008745730990995071,0.0,0.021089250964138814,-9.565458703744639,1.1206912101989908
1560000084278301952,0.0017453292530262843,0.005255072514046333,0.0,-0.01951604188256934,-9.596423396159349,1.1458988413273445
1560000084283309312,0.0,1.9084935047430918e-05,0.0,-0.04079528269803283,-9.614692357465021,1.127029094272538
1560000084288316416,-0.003490658462396823,0.0017644141535129165,0.0,-0.014712274571749076,-9.66579617459424,1.1045742325709442
1560000084293323776,-0.006981316939345561,1.9084935047430918e-05,0.0,0.0446374950741209,-9.685080407554029,0.9875444646273788
1560000084298330880,-0.010471975416294299,1.9084935047430918e-05,-0.0017453292821301147,0.05658113427615787,-9.659100891197781,0.9070828669820927
1560000084303337984,-0.013962633893243037,1.9084935047430918e-05,-0.0017453292821301147,0.015559558359184381,-9.673769762456093,0.8745836885755618
1560000084308345344,-0.01570796220039483,0.0035097435084026074,-0.0017453292821301147,-0.00013696065772389373,-9.685516966225505,0.7959685199549641
1560000084313352704,-0.017453292370191775,0.005255072514046333,-0.0017453292821301147,0.01589093320485393,-9.756430636881047,0.7040115023501142
1560000084318360576,-0.01919862253998872,1.9084935047430918e-05,-0.003490658404189162,0.043997662778034824,-9.804841568402104,0.6296933402730291
1560000084323367936,-0.01919862253998872,-0.0017262443234358216,-0.0017453292821301147,0.08920678372239606,-9.872918948702807,0.5193425191376149
1560000084328375040,-0.01919862253998872,-0.0017262443234358216,0.0,0.09116202894439811,-9.879162642720924,0.45895995278889756
1560000084333382400,-0.017453292370191775,0.0035097435084026074,-0.003490658404189162,0.07929869379256548,-9.899778794287904,0.3507534969650127
1560000084338389504,-0.01570796220039483,0.005255072514046333,-0.0017453292821301147,0.11725822927612085,-9.90935372248161,0.24725787187540377
1560000084343396608,-0.012217304654768668,0.0017644141535129165,-0.003490658404189162,0.09924245338386382,-9.922424093254628,0.20931143478635478
1560000084348403712,-0.010471975416294299,-0.0017262443234358216,-0.0017453292821301147,0.12418493845008206,-9.974391513274917,0.18387957759742102
1560000084353411072,-0.00872664617781993,-0.0017262443234358216,-0.0017453292821301147,0.15850068997164674,-9.972786771785517,0.16615136631626576
1560000084358419456,-0.005235987700871192,0.0017644141535129165,-0.0017453292821301147,0.179315459838641,-9.984239575090344,0.21956928462450234
1560000084363426560,0.0,0.0035097435084026074,-0.0017453292821301147,0.1620231141362717,-9.949993239117909,0.21270645651256145
1560000084368433920,0.0017453292530262843,1.9084935047430918e-05,-0.0017453292821301147,0.108954452642338,-9.979034763978904,0.2637976869149904
1560000084373441024,0.0017453292530262843,1.9084935047430918e-05,-0.0017453292821301147,0.11792409338737721,-9.869575838876273,0.24912226242182872
1560000084378448128,0.0034906584915006533,-0.0017262443234358216,0.0,0.15577134351063454,-9.897778982635955,0.41208839242571316
1560000084383274240,0.006981316968449391,-0.0069622321552742505,0.0,0.2231472034297588,-9.846341471228914,0.4497134120859069
1560000084388281600,0.00872664620692376,-0.0052169029167998815,0.0,0.14521594437789312,-9.828054737430968,0.5643964862997619
1560000084393288704,0.00872664620692376,-0.003471573445494869,-0.0017453292821301147,0.06257618026449902,-9.82373145950131,0.6548404355788745
1560000084398295808,0.01047197544539813,-0.0017262443234358216,0.0,0.049758851257071995,-9.771762657812257,0.735562136028688
1560000084403303936,0.01047197544539813,-0.0017262443234358216,0.0,0.08716937913526973,-9.746771585953018,0.7866668668470774
1560000084408311296,0.006981316968449391,-0.003471573445494869,-0.0017453292821301147,0.10003743869463663,-9.718026730601173,0.806496923989245
1560000084413318400,0.005235987729975022,-0.0052169029167998815,0.0,0.06921031808837827,-9.686971070466635,0.8629761000580243
1560000084418325760,0.0034906584915006533,-0.0017262443234358216,-0.0017453292821301147,0.027289192535286135,-9.645171468293368,0.8806335416726082
1560000084423332608,0.0034906584915006533,1.9084935047430918e-05,-0.0017453292821301147,0.03186004704454015,-9.650816912898556,0.9119269665593998
1560000084428339968,0.0,-0.003471573445494869,0.0,0.037832180378995495,-9.636150314029187,0.900406394248602
1560000084433347328,-0.003490658462396823,-0.0017262443234358216,0.0,0.0698712699021161,-9.668935386223067,0.9125181797384178
1560000084438354176,-0.005235987700871192,1.9084935047430918e-05,-0.0017453292821301147,0.10973160835502804,-9.683497451792226,0.8879988426241955
1560000084443362560,-0.006981316939345561,1.9084935047430918e-05,0.0,0.11882972129592273,-9.675634466935408,0.8472500081198756
1560000084448368640,-0.012217304654768668,1.9084935047430918e-05,0.0,0.13369199766265208,-9.719727738307393,0.7981152007916972
1560000084453375744,-0.013962633893243037,-0.0017262443234358216,0.0,0.1109562473415779,-9.741158886743518,0.7473753602191148
1560000084458384128,-0.01570796220039483,-0.003471573445494869,0.0,0.10959301721814346,-9.76153542501658,0.6809597038999265
1560000084463390976,-0.01570796220039483,-0.0017262443234358216,0.0,0.14667973016980537,-9.767280486465907,0.6016734400525858
1560000084468398336,-0.013962633893243037,1.9084935047430918e-05,-0.0017453292821301147,0.11463011317778103,-9.819245666198944,0.5311935685316268
1560000084473405696,-0.01570796220039483,1.9084935047430918e-05,-0.0017453292821301147,0.13110387771790008,-9.859794036436721,0.46731517949397416
1560000084478412800,-0.01570796220039483,-0.0017262443234358216,-0.003490658404189162,0.1333390341732485,-9.902844189595468,0.3980698175498567
1560000084483419904,-0.01570796220039483,-0.0017262443234358216,-0.0017453292821301147,0.13393720743088294,-9.850782056562867,0.3066016148611549
1560000084488427008,-0.013962633893243037,1.9084935047430918e-05,-0.0017453292821301147,0.13324591283306725,-9.9009496601987,0.27270545545129105
1560000084493434368,-0.013962633893243037,0.0017644141535129165,0.0,0.15877559873150973,-9.908836177507848,0.2334677686230171
1560000084498442496,-0.010471975416294299,1.9084935047430918e-05,0.0,0.1404098686888649,-9.927793111084451,0.2084002451599695
1560000084503449600,-0.005235987700871192,1.9084935047430918e-05,-0.0017453292821301147,0.1384938007635515,-9.960887393304223,0.2386261267738229
1560000084508456704,-0.005235987700871192,1.9084935047430918e-05,0.0,0.12856412098104403,-9.929675666551677,0.22865271943332155
1560000084513464320,-0.003490658462396823,1.9084935047430918e-05,0.0,0.10218533759334064,-9.91365119700333,0.24966720234409925
1560000084518471168,-0.0017453292239224538,1.9084935047430918e-05,0.0,0.1139294953588675,-9.889030425553132,0.29369645123437105
1560000084523478272,0.0,1.9084935047430918e-05,0.0,0.07429433049258517,-9.867987823758167,0.35913421291466685
1560000084528485632,0.0,1.9084935047430918e-05,-0.0017453292821301147,0.0979612694167314,-9.828063636172278,0.40290315381821395
1560000084533492480,0.0017453292530262843,1.9084935047430918e-05,0.0,0.054464226750619495,-9.828070483848508,0.5334410744532949
1560000084538500096,0.0017453292530262843,1.9084935047430918e-05,0.0,0.05549200460073037,-9.800411607715226,0.5433402205536243
1560000084543507968,0.0034906584915006533,0.0017644141535129165,-0.0017453292821301147,0.07535758729058788,-9.785750453756414,0.6625555432047617
1560000084548515328,0.0034906584915006533,0.0017644141535129165,0.0,0.06256172697226355,-9.762792621268112,0.7218742146367764
1560000084553522432,0.0,0.0035097435084026074,0.0,0.08218693772540732,-9.716287123426747,0.727275541417004
1560000084558529536,0.0,1.9084935047430918e-05,0.0,0.060235244030654396,-9.710314825841628,0.7939953316850419
1560000084563536896,0.0,-0.0017262443234358216,0.0,0.08244813588116935,-9.68433206807788,0.8188841683497965
1560000084568544000,0.0,-0.0017262443234358216,0.0,0.0828177109992686,-9.692928288705092,0.8103019434893711
1560000084573551104,-0.0017453292239224538,-0.003471573445494869,0.0,0.08242629937600376,-9.68351685892478,0.8099145082340868
1560000084578558464,-0.003490658462396823,-0.0017262443234358216,0.0,0.09143467157591074,-9.736609222447987,0.8188632919271555
1560000084583565568,-0.005235987700871192,1.9084935047430918e-05,0.0,0.07990810502189885,-9.694763968106098,0.8074082046609974
1560000084588572672,-0.00872664617781993,0.0017644141535129165,0.0,0.06110394818243402,-9.744286517600894,0.7886991465041487
1560000084593580800,-0.010471975416294299,1.9084935047430918e-05,-0.0017453292821301147,0.08660276466708601,-9.70586237263364,0.7518306167696442
1560000084598588160,-0.012217304654768668,1.9084935047430918e-05,0.0,0.12468336677690223,-9.741909026121675,0.6936037364354746
1560000084603595264,-0.012217304654768668,1.9084935047430918e-05,0.0,0.14633462251475937,-9.79557080031027,0.6181196583089482
1560000084608602624,-0.01570796220039483,0.0035097435084026074,0.0,0.10707361722301424,-9.790631078916695,0.5398023512641775
1560000084613609472,-0.017453292370191775,1.9084935047430918e-05,0.0,0.09044302170662247,-9.813533889598327,0.48154986011020035
1560000084618616576,-0.013962633893243037,1.9084935047430918e-05,0.0017453291948186234,0.09317088104136764,-9.8132628796859,0.3973612626704781
1560000084623624192,-0.012217304654768668,0.0017644141535129165,0.0,0.11360974488745199,-9.846640968142587,0.33362087408036034
1560000084628631040,-0.013962633893243037,0.0035097435084026074,-0.003490658404189162,0.12885774498409255,-9.856214103671245,0.2975169149799736
1560000084633638400,-0.013962633893243037,0.0035097435084026074,-0.0017453292821301147,0.10710556924372247,-9.908177458273956,0.25898323808309826
1560000084638645504,-0.010471975416294299,0.0017644141535129165,0.0,0.10429911769708508,-9.86877068361957,0.20916640859138155
1560000084643653888,-0.00872664617781993,0.005255072514046333,0.0,0.11939327041488101,-9.928544122061634,0.20784143466492494
1560000084648660992,-0.010471975416294299,0.005255072514046333,-0.0017453292821301147,0.12640045773759767,-9.895248176119871,0.18166705991331727
1560000084653667840,-0.00872664617781993,0.0017644141535129165,0.0,0.14044423428428338,-9.897475764318463,0.17881574502568243
1560000084658675200,-0.005235987700871192,0.005255072514046333,-0.0017453292821301147,0.14130915968808064,-9.871495135777632,0.1522792586321807
1560000084663682560,-0.003490658462396823,0.007000401752520702,-0.0017453292821301147,0.10094781415406226,-9.854115794626004,0.15709413700718372
1560000084668689664,0.0,0.0017644141535129165,0.0,0.11695924728927427,-9.871989837676294,0.18307740705327563
1560000084673696768,0.0,0.0035097435084026074,-0.0017453292821301147,0.15370096807459088,-9.8625514785912,0.2026367995202765
1560000084678704896,-0.0017453292239224538,0.005255072514046333,-0.003490658404189162,0.15835909094530548,-9.848864728633433,0.24668624569610875
1560000084683712256,0.0,0.0017644141535129165,-0.0017453292821301147,0.16674962991047793,-9.832856002635703,0.2924394173805096
1560000084688718336,0.0,0.005255072514046333,0.0,0.12377777220114972,-9.798235895065426,0.36336716287001447
1560000084693726464,0.0,0.012236389467943809,0.0,0.11256865853111886,-9.774762735762714,0.4194021381049359
1560000084698733568,0.0,0.01049106022946944,0.0,0.11239562836138244,-9.739336202444639,0.4249581028330871
1560000084703741184,0.0,0.007000401752520702,-0.0017453292821301147,0.12649655136556234,-9.748395235996162,0.44628686313690324
1560000084708748032,0.0,0.005255072514046333,0.0,0.15150906821567606,-9.7294085942549,0.45882328666030003
1560000084713755392,-0.003490658462396823,0.007000401752520702,0.0,0.15019116781914507,-9.802358076033611,0.4990549843171497
1560000084718762496,-0.005235987700871192,0.01049106022946944,0.0,0.09561444594288541,-9.736609209963284,0.44820745145759483
1560000084723769344,-0.005235987700871192,0.01049106022946944,0.0,0.11444716697302315,-9.736606586254098,0.3616578336936339
1560000084728777984,-0.006981316939345561,0.01049106022946944,0.0,0.13076958774700256,-9.744326987297265,0.3294177852021517
1560000084733784832,-0.006981316939345561,0.01049106022946944,-0.0017453292821301147,0.136914578568974,-9.748311088210428,0.28865643021928394
1560000084738792192,-0.005235987700871192,0.01049106022946944,-0.0017453292821301147,0.1311617950250301,-9.787412114838352,0.26968997999611855
1560000084743799296,-0.006981316939345561,0.012236389467943809,0.0,0.10716657903109503,-9.775333312553668,0.21721849144019761
1560000084748806656,-0.00872664617781993,0.015727047013569972,-0.0017453292821301147,0.11684269222017338,-9.784831939174277,0.20857384566622103
1560000084753813760,-0.006981316939345561,0.013981718706418178,-0.0017453292821301147,0.11199762574679985,-9.81081052322935,0.24926578842922967
1560000084758820864,-0.005235987700871192,0.01049106022946944,-0.0017453292821301147,0.07894712863519787,-9.793164094855484,0.21598921323904266
1560000084763827968,-0.006981316939345561,0.013981718706418178,0.0,0.09516242285303778,-9.77553621649267,0.15474025244791945
1560000084768835328,-0.010471975416294299,0.015727047013569972,0.0,0.16079323605813406,-9.78740658560602,0.1458758189841302
1560000084773842688,-0.012217304654768668,0.012236389467943809,0.0,0.08527084548667048,-9.813114518891933,0.149252234218403
1560000084778850560,-0.012217304654768668,0.012236389467943809,0.0,0.029541184368986458,-9.850138249217688,0.16272361929858895
1560000084783857664,-0.00872664617781993,0.008745730990995071,0.0,0.021125434132580976,-9.785298160656723,0.13914317569423088
1560000084788865024,-0.005235987700871192,0.005255072514046333,0.0,0.06226626870503094,-9.88500219391952,0.10977232086676277
1560000084793872128,-0.003490658462396823,0.005255072514046333,0.0,0.05441918091387294,-9.856071017057621,0.11778033687385797
1560000084798879488,-0.005235987700871192,0.005255072514046333,0.0,0.042343240986625785,-9.855385331283117,0.10435476391822317
1560000084803886336,-0.005235987700871192,0.0017644141535129165,0.0,0.023995283357496,-9.791434821776841,0.09128104469438784
1560000084808893696,-0.003490658462396823,-0.0017262443234358216,0.0,0.028355971954645117,-9.848400119614961,0.04755643909968307
1560000084813901824,-0.0017453292239224538,-0.0052169029167998815,-0.0017453292821301147,0.04181677631980295,-9.848397439555647,0.12064534570868798
1560000084818908928,-0.0017453292239224538,-0.0052169029167998815,-0.0017453292821301147,0.0564715411213695,-9.832757435573289,0.145868876569963
1560000084823916288,-0.003490658462396823,-0.0069622321552742505,0.0,0.04169637312763047,-9.827105085055937,0.15409837908580873
1560000084828923136,-0.003490658462396823,-0.00870756139374862,0.0,0.05899639515539157,-9.807748676794093,0.2111588017712478
1560000084833930752,-0.0017453292239224538,-0.00870756139374862,-0.0017453292821301147,0.05899639515539157,-9.807748676794093,0.2111588017712478
1560000084838937856,-0.0017453292239224538,-0.010452890632222989,-0.0017453292821301147,0.04180976913838072,-9.789814533713841,0.19407061894118713
1560000084843944960,0.0,-0.012198219870697358,0.0,0.07892300388807494,-9.784151603099334,0.21678875510544582
1560000084848952064,-0.0017453292239224538,-0.012198219870697358,0.0,0.09464903396206958,-9.77602507271021,0.27673859790515865
1560000084853959424,-0.003490658462396823,-0.012198219870697358,0.0,0.1310408178799034,-9.78741205138767,0.2946169248809901
1560000084858967552,-0.003490658462396823,-0.013943549109171727,0.0,0.1175030529072133,-9.767163008819805,0.2693488930626443
1560000084863974656,-0.0017453292239224538,-0.013943549109171727,0.0,0.11040208988847634,-9.772681243080346,0.31564489165297716
1560000084868981760,0.0,-0.012198219870697358,-0.0017453292821301147,0.11762186546094477,-9.776162840529478,0.3299953063086076
1560000084873989120,-0.005235987700871192,-0.010452890632222989,-0.0017453292821301147,0.169645885280825,-9.78399185624594,0.3108170457056328
1560000084878996480,-0.005235987700871192,-0.013943549109171727,0.0,0.1589396986891275,-9.782911491342736,0.2291680077792108
1560000084884003328,-0.005235987700871192,-0.013943549109171727,0.0,0.15810518998151887,-9.754666677466354,0.25509405609022473
1560000084889010432,-0.005235987700871192,-0.013943549109171727,0.0,0.1576991032931947,-9.780650488113162,0.2674702067936339
1560000084894018048,-0.005235987700871192,-0.012198219870697358,0.0,0.13865491294237337,-9.748951762463324,0.2683359596219257
1560000084899024896,-0.005235987700871192,-0.010452890632222989,0.0,0.12005497714245036,-9.803170453871203,0.1881807906853806
1560000084904032256,-0.006981316939345561,-0.0069622321552742505,0.0,0.13085260560633769,-9.777185330662878,0.1673336306823815
1560000084909040128,-0.006981316939345561,-0.00870756139374862,0.0,0.15672272994595468,-9.83063306838783,0.16186601796264305
1560000084914047744,-0.006981316939345561,-0.00870756139374862,0.0,0.12206400229403486,-9.80896289749063,0.12614098347476244
1560000084919054848,-0.006981316939345561,-0.0052169029167998815,0.0,0.12267514579572132,-9.841825894178886,0.10708007092256054
1560000084924061696,-0.003490658462396823,-0.003471573445494869,0.0,0.14753129099121093,-9.831070044728477,0.10596969020401416
1560000084929069056,-0.005235987700871192,-0.0017262443234358216,0.0,0.16412217519025235,-9.825935831227236,0.06896041579897363
1560000084934076160,-0.00872664617781993,-0.0017262443234358216,-0.0017453292821301147,0.13898637921477752,-9.861627686766916,0.11601210710159725
1560000084939083520,-0.006981316939345561,-0.0017262443234358216,-0.0017453292821301147,0.1325105056994101,-9.818861134897787,0.08448556797874585
1560000084944090624,-0.003490658462396823,-0.003471573445494869,0.0,0.14232936081434155,-9.83745146122951,0.12100044006273747
1560000084949098752,0.0,-0.0017262443234358216,-0.0017453292821301147,0.18268019397429006,-9.808132762064528,0.10440238184976401
1560000084954105856,0.0,1.9084935047430918e-05,0.0,0.1426191622340125,-9.842516494981615,0.11202543478214655
1560000084959113216,-0.0017453292239224538,1.9084935047430918e-05,0.0,0.13148679869591912,-9.816536519822431,0.10398442601603679
1560000084964120320,-0.0017453292239224538,1.9084935047430918e-05,0.0,0.18976490409368227,-9.824909595510748,0.135183608835165
1560000084969127424,0.0,0.0017644141535129165,0.0,0.18160575659247669,-9.805199129604308,0.14997131598402783
1560000084974134784,0.0,0.0035097435084026074,-0.0017453292821301147,0.17992790005385612,-9.795593393621393,0.2018137831344215
1560000084979141888,-0.0017453292239224538,0.0017644141535129165,0.0,0.16631818156093042,-9.766161698006556,0.19900388200289923
1560000084984148992,0.0,1.9084935047430918e-05,0.0,0.15906379459778447,-9.78579799950744,0.22532065549346547
1560000084989156352,0.0,0.007000401752520702,0.0,0.16902803287788248,-9.79802351316111,0.24188012825182
1560000084994163200,-0.003490658462396823,0.01049106022946944,0.0,0.14929776471313158,-9.76708584720989,0.22736761477214884
1560000084999171840,-0.003490658462396823,0.007000401752520702,0.0,0.15900628914533405,-9.815632668427808,0.22691414185273479
1560000085004178688,0.0,0.005255072514046333,-0.0017453292821301147,0.13888188722799868,-9.765567293345981,0.22783518838952269
1560000085009186048,-0.003490658462396823,0.008745730990995071,-0.0017453292821301147,0.13153582424027543,-9.761129186155358,0.23531932136201925
1560000085014193152,-0.005235987700871192,0.012236389467943809,-0.0017453292821301147,0.11850470169530024,-9.774575403549074,0.236199736448033
1560000085019200000,-0.005235987700871192,0.01049106022946944,0.0,0.11814663021224889,-9.78559184616172,0.24718418347379714
1560000085024207616,-0.003490658462396823,0.01049106022946944,0.0,0.117925338736858,-9.796218307158087,0.25394986928255153
1560000085029214720,-0.005235987700871192,0.005255072514046333,-0.0017453292821301147,0.13857216653941837,-9.76575865785996,0.19682394371188436
1560000085034221824,-0.005235987700871192,0.0017644141535129165,0.0,0.18919677231132936,-9.84802630116936,0.22040195416431269
1560000085039228928,-0.005235987700871192,0.0035097435084026074,0.0,0.09971657124508904,-9.737840546142479,0.21083032593769419
1560000085044237312,-0.006981316939345561,0.005255072514046333,0.0,0.12372670204977818,-9.793569022653,0.2628573486535247
1560000085049244416,-0.006981316939345561,0.01049106022946944,-0.0017453292821301147,0.12652092662913417,-9.766387037688721,0.2486312199848843
1560000085054251520,-0.006981316939345561,0.008745730990995071,0.0,0.06616326740625382,-9.745352423984162,0.25134525124997514
1560000085059258624,-0.006981316939345561,0.005255072514046333,0.0,0.12215203796329646,-9.834345010449555,0.2089852452298816
1560000085064265984,-0.006981316939345561,0.0017644141535129165,-0.0017453292821301147,0.10909898244363334,-9.780642482179235,0.11277284971654919
1560000085069273344,-0.006981316939345561,0.0035097435084026074,0.0,0.06095791046830359,-9.856317957921798,0.15032611320796185
1560000085074280192,-0.006981316939345561,0.007000401752520702,0.0,0.021777749030940263,-9.809388186023577,0.1521003284326623
1560000085079287296,-0.006981316939345561,0.005255072514046333,0.0017453291948186234,-0.0050003540646158025,-9.8685719647222,0.0923956875273641
1560000085084294912,-0.005235987700871192,-0.0017262443234358216,0.0017453291948186234,0.004845486132684791,-9.86167230626664,0.020646883213376873
1560000085089302784,-0.003490658462396823,-0.003471573445494869,0.0,0.052433426779445735,-9.843591140577233,0.05815182015329619
1560000085094310144,-0.006981316939345561,1.9084935047430918e-05,0.0,0.0843702994428329,-9.885484949312826,0.048054553657601015
1560000085099316992,-0.005235987700871192,1.9084935047430918e-05,0.0,0.06917193829400373,-9.833526625767854,0.06356232506705885
1560000085104324608,-0.005235987700871192,-0.003471573445494869,-0.0017453292821301147,0.04237344956282535,-9.847018600796517,0.10347303412000317
1560000085109331712,-0.0017453292239224538,-0.0052169029167998815,-0.0017453292821301147,0.042146026491354786,-9.812483862431344,0.11070157875139651
1560000085114338560,0.0,-0.0069622321552742505,-0.0017453292821301147,0.10236344325808461,-9.848386662834967,0.11612016440124376
1560000085119345920,0.0,-0.0069622321552742505,-0.0017453292821301147,0.19046857614218118,-9.838630344999693,0.17363249841830417
1560000085124353024,0.0017453292530262843,-0.0069622321552742505,-0.003490658404189162,0.12416241455222325,-9.766465198177396,0.1929153949907677
1560000085129360384,0.0017453292530262843,-0.0052169029167998815,-0.0017453292821301147,0.06047082962524006,-9.864293045508338,0.2103370550360353
1560000085134368512,0.0,-0.0052169029167998815,-0.0017453292821301147,0.12447552319311456,-9.759572782075608,0.21350963313130433
1560000085139375616,0.0,-0.0052169029167998815,-0.0017453292821301147,0.1535373466489065,-9.775342615879383,0.27967641309188007
1560000085144382720,0.0,-0.0069622321552742505,-0.0017453292821301147,0.15503830531612295,-9.784807003839497,0.27017779650464563
1560000085149390080,0.0,-0.0069622321552742505,0.0,0.13615975699552169,-9.744241788160304,0.3119772217598367
1560000085154397184,0.0,-0.0052169029167998815,0.0,0.14479065695184457,-9.76998574365895,0.31142523259545735
1560000085159404288,-0.003490658462396823,-0.0052169029167998815,0.0,0.11434979428885578,-9.76113456152994,0.2896632967266189
1560000085164411648,-0.005235987700871192,-0.0052169029167998815,0.0,0.11519369165168024,-9.747063929082373,0.3295259858532827
1560000085169418752,-0.0017453292239224538,-0.0069622321552742505,0.0,0.08855600647009534,-9.761734805384233,0.2812572741235636
1560000085174425856,-0.005235987700871192,-0.0052169029167998815,0.0,0.17651719259418241,-9.790837208117356,0.30710709833357797
1560000085179433216,-0.005235987700871192,-0.0052169029167998815,0.0,0.194125749010677,-9.761325189517239,0.2731006572903118
1560000085184441088,-0.005235987700871192,-0.003471573445494869,0.0,0.09723833043688641,-9.750816937323329,0.27220709457666215
1560000085189448704,-0.005235987700871192,-0.0052169029167998815,0.0,0.1121155487165711,-9.787415078013943,0.28209902682851046
1560000085194455552,-0.005235987700871192,-0.0052169029167998815,0.0,0.1652941403818516,-9.787406180769484,0.22725894714082265
1560000085199462912,-0.006981316939345561,-0.0017262443234358216,0.0,0.21622275538516791,-9.825407774556506,0.24196240178202472
1560000085204470016,-0.005235987700871192,1.9084935047430918e-05,0.0,0.17893253193526232,-9.796092001900691,0.18987044393558153
1560000085209476864,-0.005235987700871192,0.0017644141535129165,0.0,0.09926361807157238,-9.80804516043706,0.20935332054132783
1560000085214484480,-0.005235987700871192,1.9084935047430918e-05,0.0,0.11530208983212967,-9.803092219528285,0.1930214792495981
1560000085219491584,-0.005235987700871192,0.0017644141535129165,-0.0017453292821301147,0.22081676570428435,-9.830076282233007,0.18061417303302604
1560000085224498688,-0.005235987700871192,0.0017644141535129165,0.0,0.20283596480560284,-9.841975080403307,0.12372823531774681
1560000085229506816,-0.005235987700871192,1.9084935047430918e-05,0.0,0.13782838191586688,-9.82444619090649,0.12664940100988065
1560000085234514176,-0.005235987700871192,1.9084935047430918e-05,0.0,0.0863397926056583,-9.830381113668139,0.12895564858717704
1560000085239521280,-0.0017453292239224538,0.0017644141535129165,-0.0017453292821301147,0.11117714750359785,-9.831408601504565,0.14808388616835613
1560000085244528384,-0.003490658462396823,0.007000401752520702,-0.0017453292821301147,0.14436816406815975,-9.839373421596719,0.1286534038405278
1560000085249535488,-0.005235987700871192,0.007000401752520702,-0.0017453292821301147,0.10814042040363238,-9.842733535579388,0.10773139768613631
1560000085254542848,-0.0017453292239224538,0.005255072514046333,-0.0017453292821301147,0.16160324176710272,-9.848369343567683,0.14581051053193636
1560000085259550208,-0.0017453292239224538,0.008745730990995071,-0.0017453292821301147,0.07613582314506027,-9.833737465855299,0.12941188776552662
1560000085264558080,-0.003490658462396823,0.008745730990995071,-0.003490658404189162,0.0721169444437931,-9.848391797213374,0.15217511317988974
1560000085269565440,-0.0017453292239224538,0.007000401752520702,-0.0017453292821301147,0.09673259842772297,-9.814391653772194,0.18591035486001897
1560000085274572544,-0.0017453292239224538,0.005255072514046333,0.0,0.14342428991960768,-9.823384139708525,0.2299366543104099
1560000085279579648,-0.0017453292239224538,0.008745730990995071,0.0,0.15523614092102045,-9.787407986416373,0.23140442059067498
1560000085284587008,0.0,0.01049106022946944,-0.0017453292821301147,0.09012352077265781,-9.773755963036857,0.27782104414517117
1560000085289593856,0.0,0.007000401752520702,-0.0017453292821301147,0.09623265218433191,-9.825058002349483,0.27220531824647654
1560000085294601216,0.0,0.005255072514046333,0.0,0.11216454303421707,-9.743598668198356,0.28976781845184163
1560000085299608576,0.0,0.0035097435084026074,-0.0017453292821301147,0.11676079465726028,-9.756770696866461,0.2998362446566009
1560000085304615680,-0.0017453292239224538,0.005255072514046333,0.0,0.13624921063428286,-9.79469439367015,0.30891103656075125
1560000085309622784,-0.005235987700871192,0.005255072514046333,0.0,0.11351951826189091,-9.767091798487389,0.309940464342819
1560000085314630656,-0.003490658462396823,0.007000401752520702,-0.0017453292821301147,0.07608083091162982,-9.756632286399809,0.3046730373033046
1560000085319638272,-0.003490658462396823,0.005255072514046333,-0.0017453292821301147,0.08780256189386607,-9.780844851582213,0.32860938833362296
1560000085324645376,-0.003490658462396823,0.0035097435084026074,0.0,0.11338780134001854,-9.771149321541333,0.3322075791691183
1560000085329652480,-0.003490658462396823,0.007000401752520702,0.0,0.11689184435371038,-9.783780658444226,0.28592150398016736
1560000085334659584,-0.005235987700871192,0.007000401752520702,0.0,0.11863248713430287,-9.785680916143868,0.2321886758740597
1560000085339666944,-0.00872664617781993,0.005255072514046333,-0.0017453292821301147,0.07511486788390692,-9.822702589740022,0.20508596982024804
1560000085344674048,-0.006981316939345561,0.0035097435084026074,0.0,0.038204529853711984,-9.867236792585755,0.23201519959725836
1560000085349681152,-0.0017453292239224538,0.0035097435084026074,0.0,0.05105271459377503,-9.784971987018524,0.19965907262176297
1560000085354688512,-0.0017453292239224538,0.0035097435084026074,0.0,0.08044207238380968,-9.816453555954153,0.16970963880783446
1560000085359695616,-0.0017453292239224538,0.0035097435084026074,-0.0017453292821301147,0.0997931133728287,-9.807740952215324,0.10001253251956467
1560000085364704000,-0.003490658462396823,0.0035097435084026074,-0.0017453292821301147,0.07793063523924258,-9.810367450458541,0.1672132268429858
1560000085369710848,-0.005235987700871192,1.9084935047430918e-05,0.0,0.06176620956846306,-9.828070597574735,0.12555136593684166
1560000085374717952,-0.005235987700871192,1.9084935047430918e-05,0.0,0.07674488564317891,-9.842011621628256,0.08889710819153143
1560000085379553536,-0.005235987700871192,1.9084935047430918e-05,0.0,0.10119077577728791,-9.848385777293522,0.12679301451903824
1560000085384560640,-0.005235987700871192,1.9084935047430918e-05,0.0,0.12169865623941016,-9.843442108142051,0.13720741169995213
1560000085389567744,-0.003490658462396823,1.9084935047430918e-05,0.0,0.10072842436555775,-9.817461250024522,0.1371166440914003
1560000085394574848,-0.003490658462396823,1.9084935047430918e-05,0.0,0.08083417619907655,-9.824009655468844,0.1575623985244224
1560000085399582976,-0.003490658462396823,1.9084935047430918e-05,0.0,0.08371797169062396,-9.84357945175992,0.16635822722663793
1560000085404590336,-0.003490658462396823,-0.0017262443234358216,0.0,0.12851845697615172,-9.809211440523956,0.14878486208939004
1560000085409597440,0.0,-0.0017262443234358216,0.0,0.14018742036485815,-9.809597106656412,0.18727574192220575
1560000085414604544,0.0,-0.0017262443234358216,-0.0017453292821301147,0.12058299795707259,-9.768830064118081,0.2251899098554656
1560000085419611904,-0.0017453292239224538,-0.0017262443234358216,0.0,0.13367901692924775,-9.771013405673012,0.26855072441779504
1560000085424619008,-0.003490658462396823,1.9084935047430918e-05,0.0,0.11743058400297368,-9.787413978386818,0.2692731397701893
1560000085429626112,-0.0017453292239224538,0.0017644141535129165,0.0,0.10133673324199782,-9.802664441127499,0.30036273691829957
1560000085434633216,-0.003490658462396823,1.9084935047430918e-05,-0.0017453292821301147,0.11803262368962887,-9.747930255943945,0.26868186244645403
1560000085439641600,-0.010471975416294299,-0.003471573445494869,-0.003490658404189162,0.13741616387301983,-9.77492409366667,0.27301432378036905
1560000085444647424,-0.003490658462396823,1.9084935047430918e-05,0.0,0.12418737961792853,-9.794369191263698,0.31784091810924203
1560000085449654784,0.0034906584915006533,0.005255072514046333,0.0,0.11669160989624015,-9.749028103137572,0.2923121298883836
1560000085454662912,0.0017453292530262843,0.007000401752520702,-0.003490658404189162,0.11520220265768553,-9.793237433403618,0.2491286583293194
1560000085459670016,0.0,1.9084935047430918e-05,0.0,0.09712688215449757,-9.763762665989258,0.2755680406191924
1560000085464677376,-0.003490658462396823,-0.0017262443234358216,0.0,0.15329233882916873,-9.83930271585067,0.2797788277207503
1560000085469684480,-0.006981316939345561,1.9084935047430918e-05,0.0,0.21724878373230078,-9.770087556196277,0.26480428183207155
1560000085474691584,-0.005235987700871192,1.9084935047430918e-05,0.0,0.16844349977455256,-9.777545417463763,0.23692645266389978
1560000085479698688,-0.005235987700871192,1.9084935047430918e-05,0.0,0.13827058621230096,-9.77505571182158,0.24664460075585426
1560000085484706048,-0.006981316939345561,1.9084935047430918e-05,0.0,0.1558123376863048,-9.796428236596713,0.21057500348061078
1560000085489713152,-0.005235987700871192,0.0017644141535129165,0.0,0.1629751905713944,-9.79118536768172,0.16225502566151165
1560000085494721280,-0.005235987700871192,0.0035097435084026074,-0.0017453292821301147,0.15899289699946853,-9.83560734887077,0.15579224458989924
1560000085499728128,-0.005235987700871192,0.0017644141535129165,0.0,0.11982167711196981,-9.821959300056056,0.19526681678648808
1560000085504735744,-0.005235987700871192,0.0017644141535129165,-0.0017453292821301147,0.13997377048522572,-9.80773452956392,0.14968528867698738
1560000085509742848,-0.005235987700871192,0.0017644141535129165,0.0,0.17707454528025673,-9.799299260170583,0.161186040825111
1560000085514749696,-0.005235987700871192,1.9084935047430918e-05,0.0,0.14142956919053618,-9.80659003371994,0.1664096649400873
1560000085519757056,-0.003490658462396823,1.9084935047430918e-05,0.0,0.12055741560480769,-9.80176841792978,0.17268229922160921
1560000085524764160,-0.003490658462396823,1.9084935047430918e-05,0.0,0.16161035040351326,-9.78828251158436,0.14671139479073672
1560000085529772544,-0.0017453292239224538,1.9084935047430918e-05,-0.0017453292821301147,0.1480089081578897,-9.81427794087481,0.1666811186827816
1560000085534779648,-0.0017453292239224538,1.9084935047430918e-05,-0.0017453292821301147,0.10822928961454521,-9.779237225763096,0.18063540857438204
1560000085539786496,-0.003490658462396823,1.9084935047430918e-05,0.0,0.06395199279227742,-9.800366743024624,0.2084888859625785
1560000085544793856,-0.0017453292239224538,0.0017644141535129165,0.0,0.11688415061749659,-9.773504064035707,0.18833407538800753
1560000085549801216,0.0,0.0035097435084026074,-0.0017453292821301147,0.09085242759424006,-9.807742817884096,0.198317272956268
1560000085554808064,-0.003490658462396823,0.0017644141535129165,0.0,0.07772168231388753,-9.807745168852664,0.2537217871639403
1560000085559815424,-0.003490658462396823,0.0035097435084026074,0.0,0.07912068823047473,-9.787556657580646,0.21066714114816792
1560000085564822528,-0.0017453292239224538,0.0035097435084026074,0.0,0.10390490552312026,-9.788403978420561,0.23489734310128643
1560000085569829632,-0.0017453292239224538,0.0035097435084026074,0.0,0.09593721719247018,-9.742202425628369,0.25001148572188214
1560000085574836992,-0.0017453292239224538,0.0035097435084026074,0.0,0.09450743294253894,-9.79731124615172,0.25005498404196325
1560000085579844864,-0.003490658462396823,0.005255072514046333,0.0,0.11368535752984568,-9.751147629587678,0.25139314901194376
1560000085584851968,-0.005235987700871192,0.0035097435084026074,-0.0017453292821301147,0.09321450192964059,-9.795264615059486,0.2547265762757248
1560000085589859584,-0.005235987700871192,0.0017644141535129165,-0.0017453292821301147,0.13168927778021428,-9.780723159811204,0.2416044928280735
1560000085594866432,-0.003490658462396823,0.0035097435084026074,0.0,0.11862026869973065,-9.786251109876558,0.26806213285470004
1560000085599873536,0.0,0.005255072514046333,0.0,0.10306300725601397,-9.778431182492515,0.22943629773500723
1560000085604880896,-0.003490658462396823,0.0035097435084026074,0.0,0.10868972042177964,-9.777222629670558,0.22918446745964804
1560000085609887744,-0.003490658462396823,0.0017644141535129165,0.0,0.11478151635405835,-9.791930000495046,0.21316050266643422
1560000085614895104,-0.003490658462396823,0.0017644141535129165,0.0,0.09685576337574457,-9.806599519520478,0.24880878516125135
1560000085619902464,-0.005235987700871192,1.9084935047430918e-05,0.0,0.08587423556434216,-9.794222663071121,0.20987502751730472
1560000085624910336,-0.005235987700871192,1.9084935047430918e-05,0.0,0.11252354522710478,-9.807738978825684,0.1806902418024785
1560000085629917696,-0.003490658462396823,1.9084935047430918e-05,-0.0017453292821301147,0.1020883502101991,-9.843995883796612,0.18897103126792167
1560000085634924800,-0.005235987700871192,0.0017644141535129165,0.0,0.10346570164821445,-9.811206381429393,0.18546921359457458
1560000085639931904,-0.005235987700871192,1.9084935047430918e-05,0.0,0.11196362872929994,-9.828061938993311,0.1592048853002099
1560000085644939264,-0.005235987700871192,-0.0017262443234358216,0.0,0.11635553770260779,-9.813278547436122,0.13313490005340983
1560000085649946112,-0.005235987700871192,1.9084935047430918e-05,-0.0017453292821301147,0.10122300292465741,-9.848158473761021,0.14863730158618493
1560000085654953472,-0.005235987700871192,0.0017644141535129165,0.0,0.10076503316616678,-9.801965600866524,0.16305158118540472
1560000085659960832,-0.0017453292239224538,1.9084935047430918e-05,0.0,0.09027569267500735,-9.810287498162323,0.13764028917654378
1560000085664967680,-0.0017453292239224538,1.9084935047430918e-05,0.0,0.0800996443086093,-9.810976955212878,0.18031137983290332
1560000085669975808,-0.0017453292239224538,0.0017644141535129165,0.0,0.08203496045232928,-9.81017254745972,0.19471969622526675
1560000085674983168,-0.003490658462396823,1.9084935047430918e-05,0.0,0.09912733350810342,-9.819976491862224,0.21348720860517728
1560000085679990272,-0.0017453292239224538,1.9084935047430918e-05,-0.0017453292821301147,0.1271542112995884,-9.807736425341531,0.18786078815576507
1560000085684997376,-0.003490658462396823,1.9084935047430918e-05,-0.003490658404189162,0.1197120067696473,-9.827136179974442,0.22683093780107572
1560000085690004480,-0.0017453292239224538,1.9084935047430918e-05,-0.0017453292821301147,0.10314691047882622,-9.776556522873271,0.234145705980419
1560000085695011584,0.0,1.9084935047430918e-05,-0.0017453292821301147,0.10745871472338783,-9.807739522304885,0.25981512827982645
1560000085700018944,-0.0017453292239224538,0.0035097435084026074,-0.0017453292821301147,0.13011798985737705,-9.791693288449302,0.23674634395062671
1560000085705026048,-0.0017453292239224538,0.0017644141535129165,-0.003490658404189162,0.13624566514656483,-9.787411014110381,0.26705919065391026
1560000085710033152,-0.005235987700871192,1.9084935047430918e-05,0.0,0.11831605119892398,-9.780379432815705,0.24198690879186358
1560000085715041280,-0.0017453292239224538,1.9084935047430918e-05,0.0,0.11792498188524639,-9.779787070166774,0.2540604784055354
1560000085720048640,-0.003490658462396823,1.9084935047430918e-05,0.0,0.11862022614392934,-9.76906177311026,0.23266775838731013
1560000085725055744,-0.003490658462396823,0.0017644141535129165,0.0,0.13103139094266592,-9.787412300396308,0.24474699306678582
1560000085730062848,-0.005235987700871192,1.9084935047430918e-05,-0.003490658404189162,0.09891272023809504,-9.78741735499926,0.220308775083191
1560000085735069952,-0.005235987700871192,1.9084935047430918e-05,-0.0017453292821301147,0.12899787673881402,-9.787412859897113,0.20802793344370743
1560000085740077312,-0.005235987700871192,0.0035097435084026074,0.0,0.11938648733119651,-9.807062517719825,0.20878793207659516
1560000085745084416,-0.003490658462396823,0.0035097435084026074,0.0,0.11893850036678764,-9.785086314937825,0.222747548339906
1560000085750091520,-0.005235987700871192,0.0017644141535129165,-0.0017453292821301147,0.11977241096015923,-9.816404557185473,0.19682094672472755
1560000085755098624,-0.006981316939345561,1.9084935047430918e-05,0.0,0.12117645519648955,-9.790423610174003,0.15364630443798183
1560000085760107008,-0.00872664617781993,0.0017644141535129165,0.0,0.10303751925130931,-9.813056273152984,0.17399225328008627
1560000085765114112,-0.005235987700871192,0.005255072514046333,-0.0017453292821301147,0.12019952611173897,-9.831743996992238,0.18354578892931075
1560000085770121216,-0.005235987700871192,0.0017644141535129165,-0.0017453292821301147,0.12046667031048819,-9.793756199877427,0.17553204760253982
1560000085775128320,-0.005235987700871192,1.9084935047430918e-05,0.0,0.11941210751549704,-9.846345591395298,0.20775902377956046
1560000085780135424,-0.005235987700871192,0.0017644141535129165,-0.0017453292821301147,0.1297613657179204,-9.817698636092276,0.19270182326492674
1560000085785142784,0.0,0.0017644141535129165,-0.0017453292821301147,0.1487728048400872,-9.837736752078373,0.21772163700340827
1560000085790150912,0.0,0.0017644141535129165,-0.003490658404189162,0.12272465782104647,-9.779139640232593,0.22855449281966236
1560000085795156992,0.0,0.0035097435084026074,-0.0017453292821301147,0.10280467480123992,-9.824794148158475,0.2496726747782515
1560000085800165120,-0.003490658462396823,1.9084935047430918e-05,-0.0017453292821301147,0.1646433014741852,-9.78740592369642,0.2759998224771377
1560000085805172480,-0.003490658462396823,-0.0052169029167998815,0.0,0.13818184671615788,-9.787410661511114,0.3032529790794298
1560000085810179584,0.0,1.9084935047430918e-05,0.0,0.04358391537259368,-9.80604874359093,0.27427266622680885
1560000085815186688,0.0,1.9084935047430918e-05,0.0,-0.0023176701118491783,-9.811713288598774,0.2420260802658535
1560000085820193792,0.0,1.9084935047430918e-05,0.0,0.01597286200565242,-9.818469727346306,0.264239374993566
1560000085825201152,0.0,-0.0017262443234358216,0.0,0.05267567978681373,-9.807749765758954,0.25192660556644036
1560000085830208256,-0.0017453292239224538,-0.0017262443234358216,-0.0017453292821301147,0.07785435511723446,-9.786812721559233,0.23116965270379244
1560000085835215360,-0.003490658462396823,1.9084935047430918e-05,0.0,0.05748646506158755,-9.773371615942995,0.2579683413409575
1560000085840223232,-0.003490658462396823,1.9084935047430918e-05,0.0,0.08067070033719746,-9.799353446297312,0.27091674935183996
1560000085845229568,-0.003490658462396823,1.9084935047430918e-05,0.0,0.13272063037481896,-9.754969228627317,0.25108116488426807
1560000085850237952,-0.0017453292239224538,-0.0017262443234358216,-0.0017453292821301147,0.1626489950537024,-9.804802250179236,0.29331316621744014
1560000085855244800,-0.003490658462396823,-0.0017262443234358216,-0.003490658404189162,0.22123607313366692,-9.795982782035688,0.3338951118378405
1560000085860252160,-0.005235987700871192,1.9084935047430918e-05,0.0,0.26938894465607505,-9.821960234405585,0.35760927708280743
1560000085865259264,-0.005235987700871192,0.0035097435084026074,0.0,0.2936504158006462,-9.788214104849185,0.40223946455457366
1560000085870266368,-0.005235987700871192,0.005255072514046333,-0.0017453292821301147,0.2750451130406452,-9.777557659720047,0.34840523820961516
1560000085875273728,-0.006981316939345561,0.007000401752520702,0.0,0.20400503913818396,-9.796812677166564,0.3665989672704051
1560000085880280832,-0.005235987700871192,0.01049106022946944,-0.0017453292821301147,0.16185994213094307,-9.770839840706437,0.3684982770065468
1560000085885287936,-0.005235987700871192,0.007000401752520702,0.0,0.21724443220858006,-9.787395912067824,0.4074419527740364
1560000085890296320,-0.005235987700871192,0.008745730990995071,0.0,0.2379567790251778,-9.787391772436358,0.43076053906051237
1560000085895303168,-0.005235987700871192,0.012236389467943809,0.0,0.15860334567044462,-9.81385073462385,0.48605728148721616
1560000085900310528,-0.005235987700871192,0.017472377183366916,0.0,0.14748994492779038,-9.790301922715486,0.5383109887027876
1560000085905317632,-0.00872664617781993,0.015727047013569972,-0.0017453292821301147,0.040679496511899275,-9.799325736141405,0.6479245518566283
1560000085910324736,-0.006981316939345561,0.012236389467943809,0.0,-0.0032887775549126676,-9.757237663218556,0.7596495526672643
1560000085915332096,-0.006981316939345561,0.008745730990995071,0.0,-0.1620450246397828,-9.777895575569776,0.8289382354615326
1560000085920339200,-0.00872664617781993,0.0035097435084026074,0.0,-0.29644667867795027,-9.806939182549062,0.8457836158471038
1560000085925347072,-0.00872664617781993,-0.0017262443234358216,0.0,-0.11721167125116572,-9.787454544808046,0.8635612824733253
1560000085930354688,-0.00872664617781993,-0.00870756139374862,0.0,-0.08612697290129924,-9.775252625509557,0.8431587308235038
1560000085935361536,-0.006981316939345561,-0.010452890632222989,0.0,-0.0837013474877203,-9.767125036920996,0.8171767434823348
1560000085940368640,-0.005235987700871192,-0.00870756139374862,-0.0017453292821301147,-0.0522225411015195,-9.787442804368014,0.8335396422592114
1560000085945376000,-0.006981316939345561,-0.010452890632222989,-0.0017453292821301147,0.008028677173353321,-9.805118876503078,0.8132157573925326
1560000085950382848,-0.00872664617781993,-0.013943549109171727,-0.0017453292821301147,0.020610823505584016,-9.81357259507987,0.7753334466919448
1560000085955390464,-0.00872664617781993,-0.013943549109171727,-0.0017453292821301147,0.020792515347216954,-9.848080030996009,0.7695166968086004
1560000085960397568,-0.00872664617781993,-0.013943549109171727,-0.0017453292821301147,0.08911907795911969,-9.839056325925462,0.7407405817899753
1560000085965404416,-0.00872664617781993,-0.01917953775591741,0.0,0.20796195541940893,-9.857534679516322,0.6984174212578925
1560000085970411776,-0.006981316939345561,-0.017434207586120465,-0.0017453292821301147,0.2293128731017594,-9.881990966522505,0.6456916926119078
1560000085975419904,-0.005235987700871192,-0.012198219870697358,-0.005235987642663531,0.18514902816505047,-9.830202236793681,0.6609436693480147
1560000085980427008,-0.005235987700871192,-0.01568887741632352,-0.0017453292821301147,0.1848916481615191,-9.856185932149387,0.6687293365604546
1560000085985434368,-0.005235987700871192,-0.013943549109171727,0.0,0.23962591205117903,-9.84173594351928,0.6250571948923066
1560000085990441216,-0.003490658462396823,-0.012198219870697358,0.0,0.30307492905819156,-9.828026002821614,0.6711249808407589
1560000085995448576,0.0,-0.010452890632222989,-0.0017453292821301147,0.28204735261320396,-9.864214716807464,0.6363443518779904
1560000086000455936,-0.003490658462396823,-0.00870756139374862,-0.0017453292821301147,0.2556609443703415,-9.838239189556145,0.6576930056053746
1560000086005462784,-0.003490658462396823,-0.0052169029167998815,0.0,0.2454003740393434,-9.843809551879852,0.6627688289436685
1560000086010469888,-0.0017453292239224538,-0.0052169029167998815,0.0,0.26667498751994656,-9.808815438880023,0.6605980357750938
1560000086015477248,0.0,1.9084935047430918e-05,0.0,0.2633006172151895,-9.828033352482088,0.7316454756663371
1560000086020485376,0.0,0.005255072514046333,0.0,0.19711517085642905,-9.790763935821289,0.7740105113899552
1560000086025492480,0.0,0.0035097435084026074,0.0,0.21763263427877616,-9.803244703019068,0.7629363323499313
1560000086030499584,-0.0017453292239224538,0.0017644141535129165,0.0,0.18121410847506686,-9.797462528857388,0.7825854126602808
1560000086035506688,-0.005235987700871192,0.005255072514046333,0.0,0.16234493994459478,-9.764922334858545,0.8105811067309346
1560000086040514304,-0.003490658462396823,0.005255072514046333,0.0,0.12437366479413549,-9.787411032618374,0.8458642740427448
1560000086045521152,-0.0017453292239224538,0.005255072514046333,0.0017453291948186234,0.13963882963277713,-9.767006566360434,0.824945235240608
1560000086050529280,-0.003490658462396823,0.007000401752520702,0.0034906585497083142,0.12825772819840667,-9.758254039997507,0.8254588719500328
1560000086055535616,-0.005235987700871192,0.005255072514046333,0.0017453291948186234,0.08770306566467584,-9.787417399125642,0.8386233037553787
1560000086060543744,-0.005235987700871192,0.01049106022946944,0.0,0.11349111146657151,-9.804479664743258,0.8123495670089177
1560000086065550848,-0.005235987700871192,0.012236389467943809,0.0,0.13422705609854046,-9.787408870530319,0.8454224878128551
1560000086070557952,-0.003490658462396823,0.013981718706418178,0.0,0.08299738633736774,-9.80353997557903,0.8396847195329857
1560000086075565056,-0.005235987700871192,0.013981718706418178,0.0,0.032355995128463724,-9.786908549324743,0.8160804901571088
1560000086080572416,-0.006981316939345561,0.01049106022946944,0.0,0.0386888901952545,-9.78648237412387,0.8092218865045346
1560000086085579520,-0.006981316939345561,0.012236389467943809,0.0,0.0988868647039037,-9.80302143867497,0.7971193636031259
1560000086090586624,-0.005235987700871192,0.012236389467943809,0.0,0.13123763790916354,-9.808159198620025,0.7542468238639737
1560000086095593728,-0.005235987700871192,0.013981718706418178,0.0,0.06970608488167918,-9.828067611007981,0.7630563167439671
1560000086100602112,-0.005235987700871192,0.013981718706418178,0.0,0.02418654247978602,-9.787430050598537,0.7491451476165554
1560000086105609216,-0.005235987700871192,0.017472377183366916,0.0,0.0693777237696288,-9.808532765079937,0.726083791441617
1560000086110615296,-0.005235987700871192,0.017472377183366916,0.0,0.08341509166061661,-9.822999903480168,0.69839344940938
1560000086115623424,-0.005235987700871192,0.015727047013569972,-0.0017453292821301147,0.10075312495052191,-9.862808135513548,0.7234829897245292
1560000086120630528,-0.005235987700871192,0.017472377183366916,-0.0017453292821301147,0.12732829257102463,-9.852074456905385,0.6966546169852319
1560000086125637888,-0.003490658462396823,0.017472377183366916,0.0,0.13500145539751568,-9.88740783703725,0.6818009369918252
1560000086130644992,-0.003490658462396823,0.017472377183366916,0.0,0.12294010303630974,-9.879321883713152,0.7191536354282901
1560000086135653120,-0.003490658462396823,0.017472377183366916,0.0,0.12409924699190895,-9.84873249472838,0.6835659818244795
1560000086140659456,-0.0017453292239224538,0.017472377183366916,0.0,0.1305020202239291,-9.850680294735987,0.669369962862532
1560000086145667584,0.0,0.015727047013569972,0.0,0.1207317976624624,-9.807736020330355,0.6957047755192035
1560000086150674688,0.0,0.015727047013569972,0.0,0.051262339901892516,-9.79042405077144,0.7247002072138158
1560000086155681792,0.0017453292530262843,0.017472377183366916,0.0,0.03803657373344136,-9.757430781751811,0.6957647272277764
1560000086160688896,0.0,0.015727047013569972,0.0,0.017269303250888917,-9.828077137648254,0.7660167302642248
1560000086165696256,0.0,0.015727047013569972,0.0,0.06797942405592777,-9.800105691019741,0.7876612874087794
1560000086170703360,0.0,0.013981718706418178,0.0,0.09999648450152046,-9.826694140556103,0.7862158891321447
1560000086175710464,0.0,0.01049106022946944,0.0,0.08967438488996698,-9.754653276368938,0.8222333536851264
1560000086180717568,0.0,0.01049106022946944,0.0,0.027812485863225433,-9.705659464277442,0.8203353182298869
1560000086185724672,-0.0017453292239224538,0.012236389467943809,0.0,-0.0012834947080078152,-9.695979742586717,0.8312900776195784
1560000086190732032,-0.0017453292239224538,0.013981718706418178,0.0,-0.0006991273483445003,-9.678925083425986,0.8632616525241825
1560000086195740160,-0.0017453292239224538,0.012236389467943809,0.0,0.03913618426350579,-9.72359574994356,0.8728016497614491
1560000086200747264,-0.005235987700871192,0.012236389467943809,0.0,0.0654145816254684,-9.769010590632192,0.8586356820475985
1560000086205754368,-0.005235987700871192,0.012236389467943809,-0.0017453292821301147,0.09440170002067463,-9.806036264059099,0.875867435427814
1560000086210761728,-0.006981316939345561,0.012236389467943809,-0.0017453292821301147,0.07923490369227298,-9.783458701278743,0.8276473034682013
1560000086215768832,-0.012217304654768668,0.01049106022946944,0.0,0.07001578446443951,-9.786336415978438,0.8184787944300774
1560000086220775936,-0.012217304654768668,0.012236389467943809,0.0,0.06025016071115479,-9.792468745104614,0.7930361478435941
1560000086225783040,-0.013962633893243037,0.012236389467943809,0.0,0.10143284213149491,-9.73691673237687,0.7444711465635819
1560000086230790400,-0.013962633893243037,0.012236389467943809,-0.0017453292821301147,0.09000699052935382,-9.746771376841897,0.6869764548227445
1560000086235798272,-0.013962633893243037,0.012236389467943809,0.0,0.0701756493637285,-9.794537791328175,0.6339764180158517
1560000086240805632,-0.01570796220039483,0.008745730990995071,0.0,0.012921443231284163,-9.845681070943677,0.5580417857314244
1560000086245812736,-0.013962633893243037,0.007000401752520702,0.0,0.0595100097729178,-9.889038994767276,0.4641326965600492
1560000086250819840,-0.010471975416294299,0.008745730990995071,0.0,0.11186509821053131,-9.897629142811052,0.4403705036536615
1560000086255827200,-0.006981316939345561,0.007000401752520702,0.0,0.11465915951303109,-9.880830716343842,0.35423907685345923
1560000086260834304,-0.006981316939345561,0.007000401752520702,0.0,0.11608160024471507,-9.908553866743265,0.3101706632326576
1560000086265841152,-0.006981316939345561,0.005255072514046333,0.0,0.11643055145557135,-9.930397968655068,0.29926841669562143
1560000086270848768,-0.005235987700871192,0.007000401752520702,0.0,0.08527683181649776,-9.990652811998004,0.25975713896486796
1560000086275855872,-0.0017453292239224538,0.01049106022946944,0.0,0.05764892291347756,-9.990657931624789,0.25163511451547327
1560000086280864000,0.0,0.007000401752520702,0.0,0.06887837046359155,-9.970332043227003,0.200031531889256
1560000086285871104,0.0034906584915006533,0.005255072514046333,0.0,0.19511754719683538,-9.924750895353384,0.2708552107273182
1560000086290877952,0.006981316968449391,0.005255072514046333,0.0,0.2187652052231406,-9.835111717324484,0.27087271057968393
1560000086295885568,0.00872664620692376,0.005255072514046333,0.0,0.06365612790745062,-9.884822428046462,0.3672588866587887
1560000086300892672,0.00872664620692376,0.0035097435084026074,0.0,0.0061417219625600344,-9.83659471032138,0.40629866234185746
1560000086305899520,0.00872664620692376,0.0017644141535129165,0.0017453291948186234,-0.005254362318129533,-9.858807568977145,0.47644807048137944
1560000086310906880,0.00872664620692376,1.9084935047430918e-05,0.0,0.007189774712291722,-9.81725090346985,0.5690444097943644
1560000086315914240,0.00872664620692376,0.0017644141535129165,0.0,0.0264716511924716,-9.766192521131108,0.6505719465229908
1560000086320922112,0.00872664620692376,0.0017644141535129165,0.0,0.07566460022906195,-9.736902808113976,0.7194812350071184
1560000086325929472,0.00872664620692376,1.9084935047430918e-05,0.0,0.1250691549011642,-9.734639313182665,0.7812146012231892
1560000086330936320,0.006981316968449391,1.9084935047430918e-05,0.0017453291948186234,0.051642819471197116,-9.719928326293454,0.8086659586426463
1560000086335943680,0.005235987729975022,0.0017644141535129165,0.0,-0.023017511108131352,-9.65858170924092,0.8322785987953938
1560000086340951040,0.0017453292530262843,0.0017644141535129165,-0.0017453292821301147,-0.018236230516394114,-9.648931955015122,0.8320678468497655
1560000086345957888,0.0,1.9084935047430918e-05,-0.0017453292821301147,0.07089220605004116,-9.60010695031258,0.8280900274957615
1560000086350964992,-0.0017453292239224538,1.9084935047430918e-05,-0.005235987642663531,0.13948069847574396,-9.61456757507642,0.8250094213142418
1560000086355972608,-0.003490658462396823,1.9084935047430918e-05,-0.005235987642663531,0.09753189360901579,-9.649751082449594,0.7661504695677651
1560000086360979456,-0.006981316939345561,1.9084935047430918e-05,0.0,-0.019445736895811225,-9.691141226096544,0.771379589566496
1560000086365987840,-0.006981316939345561,-0.003471573445494869,-0.0017453292821301147,-0.017807242596230892,-9.685961144991229,0.7208424839981511
1560000086370994688,-0.012217304654768668,-0.0052169029167998815,-0.0017453292821301147,0.045416268292917554,-9.703762625911073,0.6988719676986648
1560000086376001792,-0.013962633893243037,-0.0052169029167998815,0.0,0.0661793324404562,-9.782870506775298,0.6101026017474896
1560000086381009408,-0.01570796220039483,-0.0017262443234358216,0.0,0.05574274763438074,-9.834840044391118,0.5183134313636422
1560000086386016256,-0.01570796220039483,-0.0052169029167998815,0.0,0.07133465591443504,-9.80996850144645,0.4169008266432912
1560000086391023360,-0.013962633893243037,-0.012198219870697358,-0.0017453292821301147,0.11777383098082113,-9.787413466454659,0.397504272327942
1560000086396030720,-0.013962633893243037,-0.013943549109171727,-0.0017453292821301147,0.09332013691458066,-9.787417971085551,0.38656555924043845
1560000086401037824,-0.012217304654768668,-0.012198219870697358,0.0,0.010296596620978843,-9.787432858443088,0.2601675737058847
1560000086406045952,-0.012217304654768668,-0.01568887741632352,0.0,-0.0004012639375247009,-9.908155917027598,0.25669586512409287
1560000086411053056,-0.010471975416294299,-0.020924866063069203,0.0,0.030294328537721082,-9.902799487962822,0.265981744759663
1560000086416060160,-0.010471975416294299,-0.022670194370220997,0.0,0.019111799658581525,-9.929694906011198,0.200413417500522
1560000086421067520,-0.006981316939345561,-0.020924866063069203,0.0,0.002502046916736847,-9.94790247076429,0.15713316235252617
1560000086426074624,-0.003490658462396823,-0.022670194370220997,-0.0017453292821301147,0.07035841456529796,-9.950009138004917,0.1833141178384919
1560000086436586496,-0.003490658462396823,-0.026160854709814885,0.0,0.10680811969203213,-9.950002777809997,0.1169720803228209
1560000086441596416,-0.0017453292239224538,-0.02441552454001794,0.0,0.021096512048632332,-9.87572519725084,0.1264207472312452
1560000086446606080,0.0,-0.02441552454001794,-0.0017453292821301147,-0.05872971392847275,-9.928521141866073,0.13601406279722078
1560000086451616000,0.0,-0.029651511324118474,-0.0017453292821301147,0.03266148713629933,-9.81945628131272,0.19209295374355753
1560000086456626944,0.0,-0.03314216980106721,0.0,0.1736608748134203,-9.848373773050985,0.20870011299223096
1560000086461636864,0.0034906584915006533,-0.03314216980106721,0.0,0.11196452422201714,-9.917081281196596,0.29740822686462565
1560000086466646528,0.0034906584915006533,-0.034887498108219006,0.0,-0.12165732925863679,-9.82558159986078,0.36094706637830526
1560000086471656448,0.005235987729975022,-0.0366328264153708,0.0,-0.1715567801693096,-9.799611145093683,0.3876279732895785
1560000086476666112,0.005235987729975022,-0.04012348675496469,-0.0017453292821301147,0.020428396318380587,-9.773602726399938,0.4359834765028033
1560000086481676032,0.006981316968449391,-0.04186881506211648,0.0,0.18485579173382055,-9.845008509835715,0.5159067229332356
1560000086486685952,0.005235987729975022,-0.04361414336926828,0.0,0.13274126818688614,-9.801875221547188,0.6276220147155397
1560000086491696896,0.0034906584915006533,-0.04885013201601396,-0.0017453292821301147,-0.04733187575593546,-9.769723024750034,0.630247223690855
1560000086496706560,0.005235987729975022,-0.052340792355607846,0.0,-0.1959144150376196,-9.615236631056435,0.6495650271129133
1560000086501716736,0.0034906584915006533,-0.05059546032316575,0.0,-0.07164312932953394,-9.687048964739354,0.7939635846069282
1560000086506726144,0.0,-0.05408612066275964,0.0,0.06267938129650387,-9.631138886989037,0.7524109363899277
1560000086511736064,-0.003490658462396823,-0.05757677727706323,-0.0017453292821301147,0.10274592538453914,-9.672617399982556,0.7231807616504153
1560000086516745984,-0.0017453292239224538,-0.06281276219851861,-0.0017453292821301147,0.01058240706049135,-9.653468131067704,0.749805220175725
1560000086521755904,-0.003490658462396823,-0.064558097956251,0.0,-0.06299010572935881,-9.716313081955787,0.758187014427833
1560000086526765568,-0.00872664617781993,-0.0663034262634028,0.0,-0.052892500579381066,-9.739951254948142,0.6636377889681229
1560000086531775744,-0.012217304654768668,-0.0663034262634028,-0.0017453292821301147,0.012007812919573937,-9.751999130161215,0.6433008745066239
1560000086536786432,-0.010471975416294299,-0.07153941118485818,-0.0017453292821301147,0.026580776995881728,-9.767558266992573,0.6464855657511835
1560000086541796096,-0.010471975416294299,-0.07503006779916177,0.0,0.11488409148175238,-9.79352588026117,0.5344365327260695
1560000086546806016,-0.010471975416294299,-0.07503006779916177,-0.0017453292821301147,0.08657327756505616,-9.807742707461149,0.40488433833527576
1560000086551815936,-0.013962633893243037,-0.07153941118485818,-0.0017453292821301147,-0.006820323973373732,-9.860069293741043,0.3789026648435184
1560000086556825600,-0.017453292370191775,-0.06804875457055459,0.0,-0.036434271703014304,-9.757889682749843,0.30837909004928205
1560000086561835520,-0.01570796220039483,-0.06804875457055459,0.0,0.0685979732673338,-9.819642384514712,0.21763138815268046
1560000086566845440,-0.012217304654768668,-0.07153941118485818,-0.003490658404189162,0.16920239986735636,-9.892272020198002,0.15166741679716944
1560000086571855360,-0.012217304654768668,-0.07677540355689416,-0.003490658404189162,0.06496776303227551,-9.949439740972986,0.13043708789834388
1560000086576865792,-0.012217304654768668,-0.07503006779916177,-0.003490658404189162,-0.033531300252265854,-9.970279217365968,0.11911383499818631
1560000086581875968,-0.00872664617781993,-0.07503006779916177,-0.003490658404189162,0.025427556018860896,-9.877108986110313,0.07811510213186726
1560000086586885632,-0.005235987700871192,-0.07677540355689416,-0.0017453292821301147,0.11260559552665544,-9.881205686823671,0.059238043892504845
1560000086591895552,-0.003490658462396823,-0.08026606017119775,0.0,0.10017676917657797,-9.894247810717586,0.0745098882071546
1560000086596905472,-0.003490658462396823,-0.08026606017119775,-0.0017453292821301147,0.06070293910189958,-9.942615753726088,0.15767092695183588
1560000086601915392,0.0,-0.07503006779916177,-0.003490658404189162,0.1124712684133847,-9.903555899539882,0.15523203796493618
1560000086606925056,0.0,-0.07677540355689416,0.0,0.17738211573934243,-9.851570929266476,0.18240716079996663
1560000086611935232,0.0,-0.07852073186404596,0.0,0.05451793269104588,-9.872782858515787,0.34898211500901494
1560000086616944896,0.0,-0.07852073186404596,-0.0017453292821301147,-0.037118806557535994,-9.830691672370012,0.39850366630421036
1560000086621955584,0.005235987729975022,-0.08026606017119775,-0.0017453292821301147,0.10598639989766312,-9.813247951305309,0.35566363534548445
1560000086626965504,0.0034906584915006533,-0.08201138847834955,-0.005235987642663531,0.36928244723333864,-9.74744329935081,0.47484693421314483
1560000086631975424,0.0017453292530262843,-0.08026606017119775,-0.005235987642663531,0.21236438944250385,-9.76069350623282,0.586313377282848
1560000086636985088,0.0017453292530262843,-0.07503006779916177,-0.0017453292821301147,0.006907878852421244,-9.740762648601407,0.5317578333143848
1560000086641995264,0.0034906584915006533,-0.07852073186404596,-0.0017453292821301147,0.004750798501744424,-9.763183952569005,0.5247540840331277
1560000086647004928,0.0034906584915006533,-0.08201138847834955,-0.0017453292821301147,0.19735836500106305,-9.749794531703863,0.5632096646876026
1560000086652014848,0.0017453292530262843,-0.08026606017119775,0.0,0.20945889494660563,-9.75836501074944,0.7090388904545416
1560000086657024256,0.0,-0.07852073186404596,-0.0017453292821301147,0.07859432341702827,-9.74677322262107,0.6978604702126463
1560000086662034432,0.0,-0.07677540355689416,-0.0017453292821301147,0.04681433724093067,-9.71673529036612,0.5876853755809565
1560000086667044096,-0.003490658462396823,-0.07503006779916177,0.0,0.23954998282003576,-9.735043883405547,0.7150607574286004
1560000086672055040,-0.005235987700871192,-0.07153941118485818,0.0017453291948186234,0.22827468681166058,-9.715698093867712,0.7492778429575235
1560000086677064960,-0.005235987700871192,-0.06804875457055459,0.0,0.11910180176273562,-9.722071883113598,0.6617972457056892
1560000086682074880,-0.006981316939345561,-0.06979408287770639,0.0,0.1607300817182353,-9.682730376817474,0.6701787183262454
1560000086687084544,-0.010471975416294299,-0.06804875457055459,0.0,0.31882533048630163,-9.74288568788109,0.7282921258079957
1560000086692094464,-0.012217304654768668,-0.06804875457055459,0.0,0.22952833867255173,-9.69652530492001,0.5867288087630321
1560000086697104128,-0.013962633893243037,-0.07153941118485818,0.0,0.057830287858881516,-9.761213737745175,0.48710441166073987
1560000086702115072,-0.013962633893243037,-0.07328473949200998,0.0,0.08817542443544718,-9.825199021838017,0.5553888602934215
1560000086707124992,-0.013962633893243037,-0.06979408287770639,0.0,0.4353518703875764,-9.88897247520462,0.48803481846989516
1560000086712134912,-0.017453292370191775,-0.0663034262634028,0.0,0.5174082750278552,-9.857580708462871,0.4482309308213364
1560000086717144576,-0.017453292370191775,-0.0663034262634028,0.0,0.1641646825429465,-9.866645020654012,0.4057757189428962
1560000086722154496,-0.01570796220039483,-0.06281276219851861,0.0,0.007471854436764489,-9.814695724309914,0.34849630851395985
1560000086727164160,-0.012217304654768668,-0.06281276219851861,0.0034906585497083142,0.15683800172827514,-9.812100701903173,0.34052119422007787
1560000086732174080,-0.012217304654768668,-0.059322105584215024,0.0034906585497083142,0.34383993991852024,-9.810007025266177,0.3041983646651133
1560000086737183744,-0.012217304654768668,-0.059322105584215024,0.0,0.1473966222650525,-9.800801355727117,0.1836211323862651
1560000086742193920,-0.013962633893243037,-0.05757677727706323,0.0,-0.04762523934815019,-9.859716861086028,0.19340372652743534
1560000086747204608,-0.010471975416294299,-0.05408612066275964,0.0017453291948186234,-0.009724984741949508,-9.936483079475867,0.22881258716136318
1560000086752214528,-0.006981316939345561,-0.052340792355607846,0.0,0.16237240725093147,-9.889037457488637,0.125524773244253
1560000086757224448,-0.005235987700871192,-0.05408612066275964,-0.0017453292821301147,0.2665672354367735,-9.915004426674493,0.10953378445135836
1560000086762234112,-0.005235987700871192,-0.05059546032316575,0.0,0.13374673426159717,-9.906993547419365,0.09761202157031766
1560000086767243776,-0.003490658462396823,-0.04535947167642007,0.0,0.02857523082835308,-9.95703645586752,0.11125587443915105
1560000086772253952,-0.003490658462396823,-0.04012348675496469,-0.0017453292821301147,0.007956826975844131,-9.90469937020606,0.06706016838380462
1560000086777263616,0.0,-0.04012348675496469,-0.0017453292821301147,0.07644651019163665,-9.884707850781293,0.028167912796340764
1560000086782274560,0.0034906584915006533,-0.04012348675496469,-0.0017453292821301147,0.13750358189782605,-9.882029442545525,0.06624951962558193
1560000086787283456,0.006981316968449391,-0.04012348675496469,0.0,0.23663462919051834,-9.926636851597417,0.15865500679236957
1560000086792294144,0.005235987729975022,-0.034887498108219006,-0.0017453292821301147,0.34003901822445726,-9.923281611751701,0.13315132586800235
1560000086797303808,0.005235987729975022,-0.029651511324118474,0.0,0.22140107733381945,-9.929049991371302,0.14340836330371862
1560000086802313984,0.01047197544539813,-0.03139683776862512,0.0,0.09733698459562048,-9.90500474937483,0.3120871485395233
1560000086807323648,0.012217304683872499,-0.03314216980106721,0.0,0.1397277301892061,-9.74610959489845,0.5213162418707112
1560000086812333568,0.012217304683872499,-0.029651511324118474,0.0,0.29711093963665863,-9.715679161313913,0.521208503704953
1560000086817343488,0.012217304683872499,-0.02441552454001794,-0.0017453292821301147,0.2578328271295013,-9.71980666123581,0.5991588921149227
1560000086822353408,0.01047197544539813,-0.022670194370220997,-0.0017453292821301147,0.15005353297229906,-9.801630948667055,0.7515890495445043
1560000086827363840,0.012217304683872499,-0.022670194370220997,-0.0017453292821301147,0.21156845189301285,-9.682882954468345,0.7335481569444577
1560000086832374016,0.01047197544539813,-0.02441552454001794,0.0,0.3768430556174734,-9.679077274877185,0.702142815720878
1560000086837382912,0.006981316968449391,-0.022670194370220997,0.0,0.39800971111603667,-9.649885197708572,0.7717408203582962
1560000086842393600,0.0,-0.01917953775591741,0.0,0.363118865882653,-9.65468694889145,0.7536621997220803
1560000086847403264,-0.0017453292239224538,-0.013943549109171727,0.0017453291948186234,0.34654468365831476,-9.614625002183518,0.7204413376575253
1560000086852413440,-0.0017453292239224538,-0.012198219870697358,0.0017453291948186234,0.24584011953121018,-9.701716181028916,0.7392394898406491
1560000086857423104,-0.0017453292239224538,-0.012198219870697358,0.0,0.1850270339750318,-9.637576077408022,0.7591881096783254
1560000086862433024,-0.005235987700871192,-0.012198219870697358,0.0,0.14635979906326704,-9.752781877895886,0.7763943435962346
1560000086867442944,-0.00872664617781993,-0.010452890632222989,0.0,0.21862123994835514,-9.655294815429302,0.6379433852503613
1560000086872452608,-0.012217304654768668,-0.010452890632222989,0.0017453291948186234,0.17464458968356006,-9.683152739275467,0.492035894676244
1560000086877462272,-0.01570796220039483,-0.012198219870697358,0.0017453291948186234,-0.008283150609447704,-9.578463954661196,0.5850711995281712
1560000086882473472,-0.017453292370191775,-0.010452890632222989,0.0,-0.006318679591065961,-9.754799534392896,0.5162180186542252
1560000086887483136,-0.01570796220039483,-0.010452890632222989,0.0,0.04702715674299944,-9.806232434970875,0.30873139882733835
1560000086892493056,-0.017453292370191775,-0.00870756139374862,0.0,0.07911499966318303,-9.88903725822027,0.21022635524495764
1560000086897502976,-0.01570796220039483,-0.010452890632222989,0.0,0.11098386226080924,-9.942089034989891,0.3223496742857625
1560000086902512896,-0.013962633893243037,-0.012198219870697358,0.0,0.06066533469781377,-9.884594937451045,0.15918418572556187
1560000086907522560,-0.01570796220039483,-0.00870756139374862,0.0,0.027163567756201615,-9.91130464965642,0.011088772945268312
1560000086912532480,-0.013962633893243037,-0.003471573445494869,0.0,-0.051215885535713344,-9.9076296832526,0.049758757048610505
1560000086917543168,-0.012217304654768668,-0.003471573445494869,0.0,0.004177143923967737,-9.873402958566015,0.14896921402532173
1560000086922553088,-0.010471975416294299,-0.0069622321552742505,0.0,0.053676658126647014,-9.874743300980736,0.08274181176929332
1560000086927563008,-0.00872664617781993,-0.00870756139374862,0.0,0.029672727515402515,-9.889102720518093,0.030263337408242556
1560000086932572928,-0.005235987700871192,-0.012198219870697358,0.0,0.06337064877242507,-10.004182744023458,0.09225664213797861
1560000086937582592,-0.005235987700871192,-0.010452890632222989,0.0,0.09768927577604286,-9.823145800074672,0.20778497392511316
1560000086942592256,-0.0017453292239224538,-0.012198219870697358,0.0,0.11734803686911832,-9.843019411785056,0.16613768023858871
1560000086947602176,-0.0017453292239224538,-0.00870756139374862,0.0,0.06665463934363833,-9.767100719836986,0.1445736788499407
1560000086952613120,-0.0017453292239224538,-0.010452890632222989,0.0,0.11600192701373763,-9.720619857300592,0.3112026872025745
1560000086957621760,0.0,-0.010452890632222989,0.0,0.284703443615631,-9.772381520680915,0.3955260906036243
1560000086962632960,-0.0017453292239224538,-0.013943549109171727,0.0,0.3019222944002373,-9.82191597259047,0.28533825131258783
1560000086967642624,-0.0017453292239224538,-0.017434207586120465,0.0,0.15715129007144382,-9.927406436135168,0.36639671202903357
1560000086972652544,-0.003490658462396823,-0.013943549109171727,0.0,0.05053184611525815,-9.869235253166224,0.45624389644563923
1560000086977662208,-0.005235987700871192,-0.01568887741632352,0.0,0.004462085894524674,-9.815533185853647,0.36470911689594376
1560000086982672128,-0.006981316939345561,-0.020924866063069203,0.0,0.029932237471679345,-10.055273047006295,0.37053388468808574
1560000086987681792,-0.006981316939345561,-0.022670194370220997,0.0,0.09047531695629518,-9.27273973283175,0.3128019388417285
1560000086992691968,-0.00872664617781993,-0.020924866063069203,0.0,0.011397869847940976,-9.754802127003602,0.13984884136241024
1560000086997701632,-0.00872664617781993,-0.017434207586120465,0.0,-0.17215274862903732,-9.716012185912147,0.21341697849548286
1560000087002712576,-0.006981316939345561,-0.012198219870697358,-0.003490658404189162,-0.42297874064408914,-9.467576826010355,0.30950762649425434
1560000087007722496,-0.00872664617781993,-0.012198219870697358,-0.0069813168811379,-0.3718086052065337,-9.71462421411411,0.028086826292995783
1560000087012732160,-0.00872664617781993,-0.017434207586120465,-0.008726646119612269,-0.11238444614651334,-9.764554599565155,0.14412201833896648
1560000087017741824,-0.010471975416294299,-0.017434207586120465,-0.008726646119612269,-0.08604711233281795,-10.046846413881392,0.30921019309453307
1560000087022752000,-0.010471975416294299,-0.012198219870697358,-0.008726646119612269,-0.22292084977065058,-9.908555962724613,0.22461534479717077
1560000087027761664,-0.010471975416294299,-0.012198219870697358,-0.008726646119612269,-0.24489588698734704,-9.843499620430338,0.30664382523783756
1560000087032771584,-0.013962633893243037,-0.01568887741632352,-0.012217304596561007,-0.20850705171873496,-9.771170025618305,0.5205761914324858
1560000087037781248,-0.017453292370191775,-0.017434207586120465,-0.013962633835035376,0.06218209556214194,-9.511105289600046,0.441073858745227
1560000087042791424,-0.017453292370191775,-0.017434207586120465,-0.015707963073509745,0.3487349678064717,-9.504021778672413,0.48914830224312045
1560000087047801856,-0.01919862253998872,-0.017434207586120465,-0.013962633835035376,0.33609391102305236,-9.587296083904754,0.6595720964792124
1560000087052811776,-0.02443460932408925,-0.013943549109171727,-0.010471975358086638,0.024835305564512328,-9.71162058164579,0.47608007852573625
1560000087057821696,-0.02443460932408925,-0.013943549109171727,-0.012217304596561007,0.010697396148693201,-9.696917051793402,0.4458960785387736
1560000087062831616,-0.02792526780103799,-0.01568887741632352,-0.010471975358086638,0.4622597329594726,-9.835730332833913,0.4658425838585531
1560000087067841280,-0.029670596108189784,-0.017434207586120465,-0.012217304596561007,0.6421998764280953,-9.768964154512007,0.23596227260809965
1560000087072851456,-0.03141592441534158,-0.017434207586120465,-0.008726646119612269,0.5415201797605801,-9.74532448560673,0.03188987520138005
1560000087077861120,-0.03316125644778367,-0.012198219870697358,-0.010471975358086638,0.4513094682448619,-9.785211223890673,0.03906857620828875
1560000087082871040,-0.03316125644778367,-0.00870756139374862,-0.0069813168811379,0.37291269449304126,-9.78265925326215,-0.12047719612722915
1560000087087881728,-0.029670596108189784,-0.0052169029167998815,-0.0069813168811379,0.2749848996327754,-9.88855160005359,-0.24365800788066228
1560000087092890624,-0.029670596108189784,-0.0069622321552742505,-0.0069813168811379,0.35000019440031266,-10.025263682699762,-0.26754012802521954
1560000087097901312,-0.02792526780103799,-0.00870756139374862,-0.0069813168811379,0.5393237424078349,-10.05154261938372,-0.3814434168223584
1560000087102911488,-0.026179939493886195,-0.010452890632222989,-0.005235987642663531,0.4890022011171956,-10.051551820955984,-0.48624377172808664
1560000087107921152,-0.020943950847140513,-0.0052169029167998815,-0.005235987642663531,0.19952766037501268,-10.035825467094462,-0.46215190620658514
1560000087112931072,-0.017453292370191775,-0.0017262443234358216,-0.005235987642663531,0.0684050606973739,-9.94889559083539,-0.5641914655722855
1560000087117940736,-0.013962633893243037,-0.0017262443234358216,-0.005235987642663531,0.17559174781455394,-9.949994507256003,-0.49247751731022743
1560000087122951680,-0.010471975416294299,-0.0052169029167998815,-0.003490658404189162,0.2550261635312943,-9.940861172294287,-0.49603553234562764
1560000087127960320,-0.005235987700871192,-0.0052169029167998815,-0.0017453292821301147,0.22638913509554287,-9.963628896906014,-0.4767350640564195
1560000087132971264,0.0,1.9084935047430918e-05,-0.003490658404189162,0.08814982059858184,-9.956881314993847,-0.38377878606665056
1560000087137981184,0.0,0.0035097435084026074,-0.005235987642663531,0.017742024503340406,-9.99066699336004,-0.3133570031925751
1560000087142991104,0.0017453292530262843,0.005255072514046333,-0.003490658404189162,0.03841690811256184,-9.961148247289207,-0.28487537310978495
1560000087148000768,0.005235987729975022,0.0017644141535129165,-0.005235987642663531,0.19268236412038828,-9.90952633976925,-0.17836673149079071
1560000087153010944,0.00872664620692376,1.9084935047430918e-05,-0.005235987642663531,0.26741889445525246,-9.89827745098527,0.07724862987812581
1560000087158020608,0.005235987729975022,0.005255072514046333,-0.005235987642663531,0.16622538365002298,-9.749979637138155,0.12540411479957478
1560000087163030272,0.005235987729975022,0.01049106022946944,-0.0069813168811379,0.1705755881536501,-9.65125418586542,0.19324895226792463
1560000087168040192,0.005235987729975022,0.012236389467943809,-0.0069813168811379,0.1673328911974197,-9.665092549453528,0.3706917662886796
1560000087173050112,0.0034906584915006533,0.008745730990995071,-0.005235987642663531,0.13724183381032898,-9.606630101629674,0.3979420069314887
1560000087178060800,0.0034906584915006533,0.0035097435084026074,-0.005235987642663531,0.4206980087508595,-9.726936947683013,0.5273265510394075
1560000087183070976,0.0,0.007000401752520702,-0.003490658404189162,0.6566750673334243,-9.418515739675067,0.521289441935966
1560000087188080640,-0.003490658462396823,0.013981718706418178,-0.003490658404189162,0.48647940046745686,-9.639651595166104,0.45967121358124635
1560000087193090560,-0.00872664617781993,0.017472377183366916,-0.0017453292821301147,0.13030715688700217,-9.442434632005716,0.42647797045751595
1560000087198100224,-0.012217304654768668,0.017472377183366916,-0.003490658404189162,0.012691023167472611,-9.752204010765825,0.530214598003759
1560000087203110144,-0.01570796220039483,0.015727047013569972,-0.005235987642663531,0.21860637536723085,-9.45590692929136,0.3684338234690658
1560000087208119808,-0.01919862253998872,0.012236389467943809,-0.0017453292821301147,0.6302245493812672,-9.748621596250258,0.14665250008868203
1560000087213129472,-0.022689279154292308,0.013981718706418178,0.0,0.6445985760243454,-9.872313845132961,0.28858514601168817
1560000087218140672,-0.020943950847140513,0.01921770735316386,0.0,0.1614971317532105,-9.742753361273621,0.2568395723628434
1560000087223150592,-0.02443460932408925,0.024453694137264392,0.0,0.010674009908507406,-9.956897583971031,-0.09972468462501399
1560000087228160256,-0.02443460932408925,0.017472377183366916,0.0,0.2647999552101573,-9.7535928846875,-0.17803341819130764
1560000087233170176,-0.02792526780103799,0.01049106022946944,0.0,0.5758579927171984,-9.830466310657709,-0.13063122086128842
1560000087238179840,-0.026179939493886195,0.01049106022946944,0.0034906585497083142,0.3754081543874508,-9.968786693130438,-0.37340203421596024
1560000087243189760,-0.020943950847140513,0.017472377183366916,0.005235987788182683,0.1348527176957499,-9.913154666037286,-0.5693851712364366
1560000087248199680,-0.017453292370191775,0.017472377183366916,0.0034906585497083142,0.0866989533133587,-10.017092826609575,-0.551752045315334
1560000087253209600,-0.01570796220039483,0.013981718706418178,0.0017453291948186234,0.12068700180296646,-10.164367195842367,-0.5448922089971961
1560000087258220288,-0.012217304654768668,0.01049106022946944,0.0017453291948186234,0.1365091231886705,-10.048927820307952,-0.6133889670056235
1560000087263230208,-0.00872664617781993,0.005255072514046333,0.005235987788182683,0.2600284087728149,-10.006233790521177,-0.7428079589791653
1560000087268239872,-0.0017453292239224538,0.007000401752520702,0.006981317026657052,0.29998037767906144,-10.012313089578155,-0.637038735918204
1560000087273249792,0.0034906584915006533,0.008745730990995071,0.006981317026657052,0.06737388102349073,-10.129673167825084,-0.45173625233360254
1560000087278259712,0.00872664620692376,0.008745730990995071,0.006981317026657052,-0.07491526732447537,-10.082520470455814,-0.4760449871839334
1560000087283269632,0.013962633922346868,0.007000401752520702,0.005235987788182683,0.04177954035212319,-9.915947928756358,-0.4365870457466811
1560000087288280320,0.013962633922346868,0.005255072514046333,0.005235987788182683,0.14930431643592051,-9.86471156467567,-0.08314719430701228
1560000087293290496,0.013962633922346868,0.0017644141535129165,0.0034906585497083142,0.013913869019672688,-9.8172414136228,0.10698325274426372
1560000087298299904,0.017453292399295606,1.9084935047430918e-05,0.0034906585497083142,-0.052184932391814584,-9.66666425048034,0.08346837201414921
1560000087303309824,0.017453292399295606,1.9084935047430918e-05,0.0034906585497083142,0.04255823069656958,-9.679600048876132,0.3314242044197415
1560000087308319744,0.012217304683872499,1.9084935047430918e-05,0.0034906585497083142,0.00896061085661376,-9.697658761459511,0.6690478563804624
1560000087313329664,0.00872664620692376,1.9084935047430918e-05,0.0017453291948186234,-0.2041073734962427,-9.733659318432874,0.6546113461385642
1560000087318339328,0.005235987729975022,1.9084935047430918e-05,0.0,-0.23903839045427294,-9.51311390051659,0.5970336090046926
1560000087323349248,0.0017453292530262843,-0.0017262443234358216,0.0,-0.022367015421950992,-9.451910932399343,0.72128657505079
1560000087328359168,-0.0017453292239224538,-0.003471573445494869,0.0,0.03503567432112471,-9.490247436272636,0.7241813024778682
1560000087333368832,-0.005235987700871192,1.9084935047430918e-05,0.0,-0.2431034862142289,-9.455512923820777,0.5554772728961528
1560000087338378752,-0.012217304654768668,1.9084935047430918e-05,-0.0017453292821301147,-0.30424795615240513,-9.64934074598915,0.4721877523192312
1560000087343389696,-0.017453292370191775,1.9084935047430918e-05,-0.005235987642663531,-0.09489078293237219,-9.777956803249966,0.4097052784045421
1560000087348399360,-0.01570796220039483,-0.003471573445494869,-0.005235987642663531,0.03906909231897741,-9.761472738247845,0.2059741697182693
1560000087353409280,-0.017453292370191775,-0.00870756139374862,-0.005235987642663531,0.027902355038319657,-9.8397984142718,0.02490084891753677
1560000087358419200,-0.020943950847140513,-0.00870756139374862,-0.0069813168811379,-0.00031503861859852843,-9.749593301971752,-0.03725204848967675
1560000087363429120,-0.022689279154292308,-0.0069622321552742505,-0.0069813168811379,-0.028049388939445037,-9.825952137830022,-0.187081777144289
1560000087368438784,-0.022689279154292308,-0.010452890632222989,-0.008726646119612269,0.021400683501297035,-9.781422370538177,-0.39779067103737764
1560000087373448960,-0.01919862253998872,-0.01568887741632352,-0.008726646119612269,0.07095473371545417,-9.963990265850796,-0.4457859390440122
1560000087378458624,-0.017453292370191775,-0.012198219870697358,-0.005235987642663531,0.2439651653583725,-9.994363603620016,-0.4348331013998679
1560000087383468032,-0.013962633893243037,-0.012198219870697358,-0.005235987642663531,0.39382954228362804,-10.11637784246175,-0.5485438211622652
1560000087388479232,-0.010471975416294299,-0.013943549109171727,-0.003490658404189162,0.20376666957729836,-10.160807987661324,-0.6025885678729151
1560000087393489152,-0.006981316939345561,-0.017434207586120465,-0.005235987642663531,0.03259055805852388,-10.120573363006692,-0.607583175630233
1560000087398498816,-0.005235987700871192,-0.02441552454001794,-0.0069813168811379,0.09752337390230074,-10.016662178204573,-0.553976273026156
1560000087403508992,0.0,-0.026160854709814885,-0.005235987642663531,0.3549976251407743,-9.941477513039839,-0.5080856984437361
1560000087408518656,0.0034906584915006533,-0.02790618301696668,-0.0017453292821301147,0.3694120647674098,-9.909310442092078,-0.44586871034550246
1560000087413528320,0.006981316968449391,-0.026160854709814885,0.0,0.027623207387531046,-9.847078074206411,-0.3684235915329657
1560000087418539264,0.00872664620692376,-0.02790618301696668,-0.003490658404189162,-0.09703801573385666,-9.925125204820949,-0.22172921339278734
1560000087423549184,0.01047197544539813,-0.029651511324118474,-0.003490658404189162,0.2612043041052887,-9.847745652373431,-0.0563591319157338
1560000087428558848,0.01047197544539813,-0.03314216980106721,0.0,0.5579214266400468,-9.864498708841767,0.14038223259397828
1560000087433568768,0.01047197544539813,-0.0366328264153708,-0.0017453292821301147,0.25882526303500886,-9.732084911404755,0.3091294100204504
1560000087437323520,0.01047197544539813,-0.034887498108219006,-0.003490658404189162,-0.1630884287945975,-9.598546690368352,0.46686414515639
1560000087442332672,0.00872664620692376,-0.0366328264153708,0.0,-0.09380608309601268,-9.504197675692323,0.5850061653155425
1560000087447342336,0.0034906584915006533,-0.04186881506211648,0.0017453291948186234,0.28650291596299443,-9.46360170928242,0.6507842894749616
1560000087452351744,0.0,-0.047104803708862164,0.0,0.2650144922122991,-9.431845653544686,0.6977698659978403
1560000087457362432,-0.0017453292239224538,-0.05059546032316575,0.0017453291948186234,-0.07514384556342729,-9.55203318797261,0.7370611600664595
1560000087462371840,-0.006981316939345561,-0.052340792355607846,0.0017453291948186234,-0.11834793881220698,-9.655354350390779,0.6389498742648304
1560000087467380992,-0.010471975416294299,-0.05059546032316575,0.0,0.0497861454321219,-9.748155875410097,0.48520841212599164
1560000087472390656,-0.017453292370191775,-0.052340792355607846,0.0,0.0828842927678178,-9.67416656396947,0.3095063633720578
1560000087477400064,-0.020943950847140513,-0.055831448969911435,0.0,-0.04787789701047252,-9.792586629960786,0.0642623557609954
1560000087482409728,-0.01919862253998872,-0.061067437616657116,0.0,-0.037635124169976414,-9.784069382975298,-0.11514076988343308
1560000087487418880,-0.020943950847140513,-0.06281276219851861,0.0,0.033308441393897124,-9.807754891608269,-0.3050993537115805
1560000087492428544,-0.01919862253998872,-0.05757677727706323,0.0,-7.204971629203027e-05,-9.983992581321306,-0.4577218044711844
1560000087497437952,-0.01570796220039483,-0.059322105584215024,-0.0017453292821301147,-0.19796824186911421,-10.102881631025943,-0.5570950441657649
1560000087502448640,-0.012217304654768668,-0.0663034262634028,-0.003490658404189162,-0.09819194538347933,-10.157711347011096,-0.6377981250921694
1560000087507458048,-0.006981316939345561,-0.06804875457055459,-0.0017453292821301147,0.11096683184396508,-10.009753182222068,-0.587165188905161
1560000087512467456,0.0,-0.064558097956251,-0.003490658404189162,0.1685075403236893,-10.004415096103534,-0.49836521890398605
1560000087517476864,0.0017453292530262843,-0.064558097956251,-0.003490658404189162,0.011697582840137444,-10.03131405941991,-0.39317035374236464
1560000087522486272,0.006981316968449391,-0.0663034262634028,-0.0017453292821301147,-0.06613931659065553,-9.97666502486119,-0.2069843805656118
1560000087527495936,0.01047197544539813,-0.06804875457055459,-0.003490658404189162,0.013278232117661253,-9.955128119034798,-0.06216184408158022
1560000087532505088,0.01047197544539813,-0.07503006779916177,-0.005235987642663531,0.14549470247721594,-9.768997480124087,0.12978655478587298
1560000087537514752,0.00872664620692376,-0.07852073186404596,-0.005235987642663531,0.21864776955891094,-9.679854717081593,0.24846782160651715
1560000087542524928,0.00872664620692376,-0.07852073186404596,-0.005235987642663531,0.13177710275790264,-9.735356750364495,0.4219147342589504
1560000087547534592,0.00872664620692376,-0.08026606017119775,-0.003490658404189162,0.03494894358602984,-9.614681096046457,0.5958029400154453
1560000087552544000,0.005235987729975022,-0.08026606017119775,0.0,0.04897264201931835,-9.533920226059458,0.6901419902473915
1560000087557553408,0.0,-0.08724737339980493,-0.0017453292821301147,0.15137579204766688,-9.541195331365776,0.7030505594080689
1560000087562562816,-0.003490658462396823,-0.08899270170695672,-0.003490658404189162,0.2524813621615588,-9.581608582461113,0.6782601030661455
1560000087567572480,-0.010471975416294299,-0.08724737339980493,0.0,0.30638572517886825,-9.659558028130833,0.6431418668552235
1560000087572581888,-0.012217304654768668,-0.08375671678550134,0.0,0.2968977023983235,-9.695927731865098,0.51238839617001
1560000087577591296,-0.013962633893243037,-0.08550204509265313,0.0,0.17852192610534412,-9.637361290699932,0.3916019081067882
1560000087582600704,-0.013962633893243037,-0.08899270170695672,0.0,0.09809314896717256,-9.73660954308091,0.24591139519996874
1560000087587611392,-0.013962633893243037,-0.0942286940789927,0.0017453291948186234,0.13481519321961985,-9.815696859057656,0.07799021480536614
1560000087592620800,-0.017453292370191775,-0.09946467900044809,0.0034906585497083142,0.3316178883541587,-9.9052064590432,-0.15090724812788733
1560000087597629952,-0.017453292370191775,-0.09946467900044809,0.005235987788182683,0.40295303755030276,-9.970274884852708,-0.33216979796329454
1560000087602639616,-0.017453292370191775,-0.09771935069329629,0.005235987788182683,0.1545174218960353,-10.013652714467634,-0.3793044942559582
1560000087607649024,-0.012217304654768668,-0.09771935069329629,0.005235987788182683,-0.03578287740642437,-10.066502969519096,-0.46824580268957494
1560000087612658688,-0.00872664617781993,-0.0959740223861445,0.0034906585497083142,-0.11323447614421442,-10.070220198915985,-0.5720013403548933
1560000087617669120,-0.003490658462396823,-0.10295533561475168,0.0034906585497083142,0.07651980667361104,-10.092272279375171,-0.47645671009539087
1560000087622678528,0.0,-0.10819132798678766,0.0034906585497083142,0.1305664885170174,-10.073140249014894,-0.42977842378233316
1560000087627687936,0.005235987729975022,-0.10819132798678766,0.0017453291948186234,0.04273571007330333,-10.005930512227362,-0.3727098223022935
1560000087632697600,0.006981316968449391,-0.10470067137248407,0.0,-0.08658803202497353,-9.886761591870746,-0.22480091762023588
1560000087637707008,0.012217304683872499,-0.10644599967963586,0.005235987788182683,-0.03391770563269904,-9.83271920109042,-0.07287963564759917
1560000087642716416,0.015707962229498662,-0.10993665629393945,0.005235987788182683,0.03766202550257318,-9.787954925873787,0.09756692549512233
1560000087647725824,0.015707962229498662,-0.11342731290824304,0.0017453291948186234,0.057082062940274805,-9.812884564331952,0.27020971926125714
1560000087652735232,0.012217304683872499,-0.11168198460109124,0.0017453291948186234,-0.08433356228039908,-9.751114649182785,0.46778935811196704
1560000087657744896,0.012217304683872499,-0.10819132798678766,0.0017453291948186234,-0.15777181375688742,-9.612482619125007,0.6008139380262444
1560000087662754304,0.012217304683872499,-0.10644599967963586,0.0,-0.05805264209718983,-9.539491412303773,0.6314720375163047
1560000087667764736,0.012217304683872499,-0.10819132798678766,0.0,0.02311249949228121,-9.513493606351728,0.6674798775028361
1560000087672774144,0.006981316968449391,-0.10993665629393945,0.0,0.03708585019745992,-9.640244869331644,0.7283797256945034
1560000087677783808,0.0034906584915006533,-0.10819132798678766,-0.0017453292821301147,0.012047673994587492,-9.622610778757378,0.707782028092804
1560000087682793216,0.0,-0.10470067137248407,-0.003490658404189162,0.021347629825694714,-9.610926059198833,0.639112298825748
1560000087687802624,-0.005235987700871192,-0.10295533561475168,-0.003490658404189162,0.12067254382423918,-9.622283629654145,0.5772526030004655
1560000087692812032,-0.006981316939345561,-0.10295533561475168,0.0,0.27387759298285336,-9.722413512190855,0.47762976347498226
1560000087697821696,-0.010471975416294299,-0.10470067137248407,0.0,0.29212566424183156,-9.747216377144738,0.2749181458035846
1560000087702831104,-0.00872664617781993,-0.10470067137248407,0.0,0.24426204813418792,-9.73658487355215,0.1652384492114644
1560000087707840768,-0.010471975416294299,-0.10470067137248407,0.0,0.1754800181349008,-9.823814728482205,0.08025796300203243
1560000087712850688,-0.010471975416294299,-0.09946467900044809,0.0,0.16502836765163686,-9.867174490444414,0.025215960486952883
1560000087717860352,-0.00872664617781993,-0.09771935069329629,0.0,0.2363112715049676,-9.914082806870429,-0.11256914928430882
1560000087722869760,-0.005235987700871192,-0.10121000730759988,0.0,0.3001105740849903,-9.952707533687791,-0.22479175951049263
1560000087727879168,-0.003490658462396823,-0.10121000730759988,0.0,0.4322410514499422,-10.010915187237888,-0.25038128303164675
1560000087732888576,-0.0017453292239224538,-0.0959740223861445,0.0,0.43020566886442224,-9.998683941597925,-0.3279195809794654
1560000087737897984,0.0,-0.08899270170695672,0.0,0.27890575316067767,-10.062180478076364,-0.39879098737657526
1560000087742908672,0.0034906584915006533,-0.08550204509265313,0.0017453291948186234,0.07485845945738513,-10.004514572786974,-0.2795850775246467
1560000087747918080,0.006981316968449391,-0.08724737339980493,0.0017453291948186234,0.14992672394769582,-9.97031909680164,-0.15355177465371228
1560000087752927744,0.01047197544539813,-0.09248336577184091,0.0,0.42883219220599067,-9.912058228687028,-0.06561077453784864
1560000087757936896,0.012217304683872499,-0.0959740223861445,0.0,0.5178063081602097,-9.80815198461488,0.008046384408708473
1560000087762946560,0.012217304683872499,-0.08899270170695672,0.0017453291948186234,0.2036326790132998,-9.784608207042691,0.202854294690413
1560000087767955968,0.012217304683872499,-0.08724737339980493,0.0,-0.02995304994096249,-9.63711786493038,0.4113476751036146
1560000087772965632,0.00872664620692376,-0.08375671678550134,0.0,0.01580488082072644,-9.587853427495821,0.5032494881843632
1560000087777974784,0.006981316968449391,-0.08550204509265313,0.0,0.22025596611252335,-9.62346828144125,0.6031131672295849
1560000087782984192,0.006981316968449391,-0.08550204509265313,0.0017453291948186234,0.2560934611645674,-9.70380320255328,0.6532437857696485
1560000087787994880,0.005235987729975022,-0.08026606017119775,0.0,0.05253334651618834,-9.736603280195117,0.619735794007923
1560000087793004544,0.0,-0.07328473949200998,0.0,0.00907686008981798,-9.717981827326723,0.5114063936164034
1560000087798013952,-0.0017453292239224538,-0.07328473949200998,0.0,0.18261872758134975,-9.673241838482678,0.403677409479639
1560000087803023104,0.0,-0.07153941118485818,0.0,0.353970877210021,-9.665718889104015,0.4154481774261964
1560000087808032768,-0.0017453292239224538,-0.06979408287770639,0.0,0.27957952575281353,-9.688967128247294,0.28865346487475674
1560000087813042176,-0.005235987700871192,-0.06979408287770639,0.0017453291948186234,0.17421334987128995,-9.7038113159277,0.2679632585037849
1560000087818051840,-0.006981316939345561,-0.0663034262634028,0.0,0.1310538013086298,-9.79026609031428,0.26837178860350475
1560000087823060992,-0.00872664617781993,-0.06281276219851861,0.0,0.20990435708534672,-9.772677516450848,0.18719128774531968
1560000087828070656,-0.00872664617781993,-0.061067437616657116,0.0,0.26190870310394265,-9.744008515468034,0.0890871230590428
1560000087833081088,-0.006981316939345561,-0.059322105584215024,0.0,0.27384335907113283,-9.88900198480575,0.0800426218414464
1560000087838089728,-0.006981316939345561,-0.055831448969911435,-0.0017453292821301147,0.21485962454147364,-9.94425782463751,0.08266644974045041
1560000087843100160,-0.010471975416294299,-0.05408612066275964,0.0,0.2647254917648629,-9.891942937464,0.021187223487971196
1560000087848109568,-0.005235987700871192,-0.052340792355607846,0.0017453291948186234,0.3478830933818081,-9.968716315971022,-0.046320620007798324
1560000087853118976,-0.003490658462396823,-0.052340792355607846,0.0,0.27920536265445467,-9.851573614738722,-0.2009175691519368
1560000087858128384,-0.006981316939345561,-0.04885013201601396,0.0,0.29675722060227006,-9.943961699976644,-0.3023808177871432
1560000087863138048,-0.0017453292239224538,-0.04361414336926828,0.0,0.3182826899105587,-9.953080096907266,-0.4413383419238856
1560000087868147200,0.0017453292530262843,-0.04186881506211648,0.0,0.3226680962729748,-10.038902138242179,-0.483937828119132
1560000087873157632,0.0034906584915006533,-0.04186881506211648,0.0034906585497083142,0.14957691970553758,-10.092259091286751,-0.4870581042401232
1560000087878167040,0.01047197544539813,-0.04186881506211648,0.005235987788182683,0.037401655850767976,-10.120047291032106,-0.41128919922809326
1560000087883176704,0.015707962229498662,-0.04012348675496469,0.0034906585497083142,0.0128050553913071,-10.113383906027464,-0.2384098008057823
1560000087888186112,0.017453292399295606,-0.03837815844781289,0.0,0.1336593208669817,-9.966237338165,-0.10798730320708627
1560000087893195520,0.020943950876244344,-0.0366328264153708,0.0,0.21050713133959192,-9.857406278732388,0.19981547034428895
1560000087898204928,0.024434609353193082,-0.034887498108219006,0.0,0.11425958012576723,-9.706608164981382,0.5036395557356864
1560000087903214592,0.024434609353193082,-0.03139683776862512,0.0,-0.0189752214540948,-9.624256223492683,0.7572641242911091
1560000087908224000,0.01919862256909255,-0.02790618301696668,-0.0017453292821301147,-0.0015067249040199536,-9.456783309174082,0.8779567401607132
1560000087913234432,0.012217304683872499,-0.029651511324118474,0.0,0.10913471373473828,-9.391111835693115,1.0220733203784376
1560000087918243840,0.006981316968449391,-0.03139683776862512,0.0,0.22509565529747927,-9.354045340470325,1.072502453912132
1560000087923253504,0.0034906584915006533,-0.02790618301696668,0.0,0.14480864594028894,-9.472398491118623,1.082705789119082
1560000087928262912,-0.003490658462396823,-0.02441552454001794,-0.0017453292821301147,0.005095099755036227,-9.481946403960007,1.004414124592712
1560000087933272320,-0.010471975416294299,-0.01917953775591741,0.0,-0.03014495240476798,-9.477563878849443,0.8710174081306947
1560000087938281728,-0.013962633893243037,-0.017434207586120465,0.0,0.04422188050403279,-9.61415410983796,0.7643756431429833
1560000087943291136,-0.017453292370191775,-0.020924866063069203,-0.0017453292821301147,0.2055979334905997,-9.653110513650523,0.5438999229916601
1560000087948300800,-0.01919862253998872,-0.022670194370220997,-0.0017453292821301147,0.3204483022973731,-9.799232627274575,0.31162497542575107
1560000087953310208,-0.01919862253998872,-0.017434207586120465,-0.003490658404189162,0.34520489076948396,-9.860244869162193,0.06433144185456671
1560000087958320640,-0.022689279154292308,-0.012198219870697358,-0.0017453292821301147,0.3061418147535001,-9.929644911483251,-0.14671327392376762
1560000087963330048,-0.020943950847140513,-0.013943549109171727,0.0,0.24432844124255937,-9.972311331706866,-0.34675193215152256
1560000087968339712,-0.017453292370191775,-0.012198219870697358,0.0,0.18776640682493995,-9.988690356700426,-0.47473378041525793
1560000087973349120,-0.012217304654768668,-0.00870756139374862,0.0,0.26224313690276524,-10.198711772589439,-0.5360211362125099
1560000087978358784,-0.010471975416294299,-0.010452890632222989,0.0,0.25561290591719255,-10.113047887839341,-0.5921563698086114
1560000087983367936,-0.005235987700871192,-0.012198219870697358,0.0,0.20363634129899114,-10.140956143588275,-0.5747752063822019
1560000087988377344,0.0,-0.012198219870697358,0.0,0.1019678459861137,-10.063006749333715,-0.5372635342358063
1560000087993388032,0.0034906584915006533,-0.010452890632222989,0.0,0.07583126279319134,-10.105103396940008,-0.36740329180917486
1560000087998397440,0.01047197544539813,-0.003471573445494869,-0.0017453292821301147,0.04663346531711184,-10.00114672734183,-0.2591513231277723
1560000088003406848,0.015707962229498662,1.9084935047430918e-05,-0.003490658404189162,0.05290846988049957,-9.910425177544388,-0.03678868176502956
1560000088008416256,0.015707962229498662,-0.0052169029167998815,-0.003490658404189162,0.09546173934218898,-9.832472190740354,0.23682859826454483
1560000088013425920,0.017453292399295606,-0.0069622321552742505,-0.0017453292821301147,0.15936185142082013,-9.667886887424032,0.47291283477629265
1560000088018435328,0.013962633922346868,-0.0017262443234358216,-0.003490658404189162,0.12698103826503154,-9.637436886390278,0.6519783717681525
1560000088023444992,0.012217304683872499,1.9084935047430918e-05,-0.003490658404189162,-0.002190676072918535,-9.569239917357267,0.8258781655297622
1560000088028454144,0.00872664620692376,1.9084935047430918e-05,-0.005235987642663531,-0.04427470140036185,-9.527343323100222,0.9446128431116513
1560000088033463808,0.005235987729975022,1.9084935047430918e-05,-0.005235987642663531,0.007130377941779516,-9.391130020239054,0.9488568417378336
1560000088038473984,0.0,1.9084935047430918e-05,-0.003490658404189162,0.11046943999480528,-9.403298342939616,0.9822414147771428
1560000088043482880,-0.006981316939345561,1.9084935047430918e-05,-0.003490658404189162,0.13640916653862,-9.518523406838662,0.926130403815459
1560000088048492800,-0.012217304654768668,1.9084935047430918e-05,-0.005235987642663531,0.107714897704729,-9.611477211232549,0.8010104546842879
1560000088053502464,-0.02443460932408925,1.9084935047430918e-05,-0.0069813168811379,0.05530606725076019,-9.656330837138947,0.5962825609441105
1560000088058511872,-0.029670596108189784,1.9084935047430918e-05,-0.0069813168811379,0.0870486197365954,-9.736611232363446,0.4094647299857589
1560000088063521280,-0.02443460932408925,0.0017644141535129165,-0.0069813168811379,0.18180350423275324,-9.766863055529214,0.12642891704351314
1560000088068530944,-0.02443460932408925,0.0017644141535129165,-0.005235987642663531,0.33150735330432707,-9.866721269555928,-0.0788068454190151
1560000088073540096,-0.026179939493886195,1.9084935047430918e-05,-0.0017453292821301147,0.37561585189006375,-10.003845348541146,-0.3173490385857836
1560000088078550784,-0.026179939493886195,-0.0017262443234358216,0.0,0.2809999485502054,-10.09868968210313,-0.5286287992317498
1560000088083560192,-0.020943950847140513,-0.0052169029167998815,-0.0017453292821301147,0.16135993330692344,-10.078520775323241,-0.6018443838506468
1560000088088569856,-0.01570796220039483,-0.0069622321552742505,-0.0017453292821301147,0.13581591084217712,-10.125050044884969,-0.6807663362028602
1560000088093579008,-0.006981316939345561,-0.0052169029167998815,0.0,0.17492204741858894,-10.126100089877983,-0.6814672590486236
1560000088098588672,0.0,-0.0069622321552742505,-0.0017453292821301147,0.24085532016644004,-10.15207619316451,-0.543887885983934
1560000088103598080,0.0017453292530262843,-0.013943549109171727,0.0,0.20109542774170067,-10.069624909424578,-0.45314201834165313
1560000088108607744,0.006981316968449391,-0.01568887741632352,0.0,0.21635978667697509,-9.970264423191976,-0.3018396998408116
1560000088113618176,0.012217304683872499,-0.013943549109171727,0.0,0.166434362461529,-9.839043068807255,-0.07667497829338055
1560000088118627584,0.013962633922346868,-0.013943549109171727,0.0,0.09932795755832144,-9.80361557844234,0.13542677934930963
1560000088123636992,0.015707962229498662,-0.01568887741632352,0.0034906585497083142,0.04282229394996267,-9.709260092131945,0.29328132860280903
1560000088128646400,0.012217304683872499,-0.017434207586120465,0.0017453291948186234,0.03361577147923455,-9.705331345272823,0.5174597330766354
1560000088133656064,0.01047197544539813,-0.020924866063069203,0.0,0.022355229295022906,-9.627632141524565,0.7885174521242574
1560000088138665216,0.012217304683872499,-0.02441552454001794,0.0,0.026574822729942084,-9.613991213844683,0.8063411715247759
1560000088143674880,0.005235987729975022,-0.02441552454001794,0.0017453291948186234,0.042305014484469355,-9.513064185505726,0.7889199458554303
1560000088148684288,0.0017453292530262843,-0.02441552454001794,0.0017453291948186234,0.004068402088645534,-9.527897096116178,0.8349329534648346
1560000088153693952,-0.0017453292239224538,-0.026160854709814885,0.0017453291948186234,-0.021449349163145063,-9.51290891589818,0.8317673521488228
1560000088158703104,-0.005235987700871192,-0.02790618301696668,0.0,-0.020431772846748023,-9.521930915032573,0.7598618409716725
1560000088163713792,-0.00872664617781993,-0.02790618301696668,0.0,0.02703359020010744,-9.605859480535898,0.6601162155616971
1560000088168723200,-0.01570796220039483,-0.02790618301696668,0.0017453291948186234,0.10220934103085426,-9.683317711700528,0.45014734639700904
1560000088173732864,-0.017453292370191775,-0.029651511324118474,0.0017453291948186234,0.10709513353114071,-9.82556553923675,0.20685478618487868
1560000088178742272,-0.020943950847140513,-0.03139683776862512,0.0,0.012376134279908026,-9.848562794347252,0.035038875480981974
1560000088183751680,-0.020943950847140513,-0.03314216980106721,0.0,-0.008643300051985416,-9.909377274906861,-0.08468692910162982
1560000088188761088,-0.017453292370191775,-0.03314216980106721,0.0,0.0030585359516245043,-9.831406534891341,-0.2469458399383202
1560000088193770496,-0.01570796220039483,-0.03837815844781289,0.0,0.045792776804492924,-9.985840904280492,-0.3290175335312491
1560000088198780928,-0.010471975416294299,-0.0366328264153708,0.0,0.10031574379646355,-10.001794685501538,-0.4248010198130368
1560000088203790336,-0.006981316939345561,-0.03837815844781289,0.0017453291948186234,0.20123006021033718,-10.031281309637366,-0.4734153032241529
1560000088208799744,-0.003490658462396823,-0.04361414336926828,0.0,0.13814280363001144,-10.050125409225064,-0.41702220159379927
1560000088213809152,0.0,-0.04186881506211648,0.0,0.11827565604285598,-10.00269161188366,-0.378595496497763
1560000088218818816,0.0,-0.04186881506211648,0.0,0.1538881072344285,-9.924367210767869,-0.30358666144457297
1560000088223828224,0.0017453292530262843,-0.04361414336926828,0.0017453291948186234,0.2632798162081581,-9.927804270884033,-0.17160612523009214
1560000088228837632,0.005235987729975022,-0.05059546032316575,0.0017453291948186234,0.2349589829660434,-9.88140308010323,0.015972162728441153
1560000088233847040,0.005235987729975022,-0.05059546032316575,0.0,0.13562495466017796,-9.819983060178943,0.12397829081297441
1560000088238857728,0.005235987729975022,-0.04885013201601396,0.0,0.03303072648805047,-9.749594872777946,0.2472281474769858
1560000088243867136,0.006981316968449391,-0.04885013201601396,0.005235987788182683,-0.006250387980061706,-9.674240660232982,0.37865968385032317
1560000088248876800,0.005235987729975022,-0.052340792355607846,0.0034906585497083142,0.026940194869464015,-9.626953762893983,0.5225991553097706
1560000088253885952,0.0017453292530262843,-0.05408612066275964,0.0,0.11118970642684903,-9.643518113350426,0.6623475694460578
1560000088258895360,0.0,-0.052340792355607846,0.0017453291948186234,0.12518734985086272,-9.600073369702175,0.7389788110086881
1560000088263905024,-0.003490658462396823,-0.05059546032316575,0.0017453291948186234,0.03152513249790648,-9.667238770214693,0.7174485049946783
1560000088268914432,-0.006981316939345561,-0.04885013201601396,0.0,-0.068934136768181,-9.62317401781777,0.6437299499237515
1560000088273923840,-0.012217304654768668,-0.05408612066275964,0.0,-0.07119483340397079,-9.635023533323752,0.5616048219162587
1560000088278934272,-0.013962633893243037,-0.05408612066275964,0.0,0.008309617112580027,-9.674616867388202,0.48778528513615554
1560000088283942912,-0.012217304654768668,-0.052340792355607846,0.0,0.1183537165284227,-9.724220229638664,0.3980416279417161
1560000088288953344,-0.012217304654768668,-0.052340792355607846,0.0,0.051662322944530686,-9.786128587391794,0.2791110612614899
1560000088293963008,-0.020943950847140513,-0.052340792355607846,0.0,-0.15014685479987264,-9.898966777755618,0.15867998285340576
1560000088298972160,-0.022689279154292308,-0.052340792355607846,0.0,-0.12442452072121851,-9.837204646766715,0.00048371354836772903
1560000088303981824,-0.01570796220039483,-0.055831448969911435,-0.0017453292821301147,0.025637613749346505,-9.922217781125209,-0.10056664618541865
1560000088308991232,-0.013962633893243037,-0.06281276219851861,-0.0017453292821301147,0.11822845615742669,-9.93562564409434,-0.1951530495221491
1560000088314000896,-0.012217304654768668,-0.06281276219851861,0.0,0.13316094719480373,-9.968791064701934,-0.21731263926941452
1560000088319010048,-0.006981316939345561,-0.055831448969911435,0.0,0.09730772699402862,-10.010974697678062,-0.2359631683923869
1560000088324020736,-0.003490658462396823,-0.05757677727706323,0.0,0.021848402976428392,-10.010988325247952,-0.18377029470615308
1560000088329030144,-0.005235987700871192,-0.059322105584215024,0.0,-0.0045916918472841284,-9.980062082517861,-0.16097934076797038
1560000088334039552,-0.003490658462396823,-0.0663034262634028,0.0,0.051108326691300686,-9.871116136185503,-0.06871991385808132
1560000088339049216,-0.0017453292239224538,-0.07503006779916177,0.0,0.1381172552968924,-9.884480796220902,0.024451983998604987
1560000088344058368,0.0,-0.07503006779916177,-0.0017453292821301147,0.15107237961364872,-9.848010475108902,0.10153657989832587
1560000088349068032,0.005235987729975022,-0.06979408287770639,-0.0017453292821301147,0.03299360445579519,-9.800118449943103,0.2376459814469445
1560000088354077440,0.005235987729975022,-0.06979408287770639,-0.0017453292821301147,0.0012358051612351931,-9.762416208983538,0.41932574863559635
1560000088359087872,0.0017453292530262843,-0.06979408287770639,-0.003490658404189162,0.07405973689108561,-9.719002663716044,0.5532829357310575
1560000088364097024,0.0,-0.07328473949200998,0.0,0.07879675032992496,-9.65256069346948,0.5789784044161927
1560000088369106688,0.0,-0.07153941118485818,0.0,0.00585213145361458,-9.695418061559536,0.628176350657772
1560000088374116096,-0.0017453292239224538,-0.07503006779916177,-0.0017453292821301147,-0.08666076345318754,-9.655348853344325,0.6988985051405773
1560000088379125760,-0.003490658462396823,-0.07852073186404596,-0.0017453292821301147,-0.0025290866228170478,-9.666479417660817,0.7099038843421979
1560000088384134912,-0.005235987700871192,-0.08026606017119775,0.0,0.07732365735584898,-9.59162548903439,0.6728787314826572
1560000088389144320,-0.00872664617781993,-0.07852073186404596,0.0,0.06063685180048253,-9.673503287831421,0.5855852908595295
1560000088394153984,-0.012217304654768668,-0.07852073186404596,-0.0017453292821301147,-0.017258230478718228,-9.678774197487382,0.3703606986209804
1560000088399163392,-0.012217304654768668,-0.08026606017119775,-0.0017453292821301147,-0.04975935146458281,-9.72979061237223,0.25676027820545466
1560000088404174080,-0.012217304654768668,-0.08201138847834955,-0.003490658404189162,0.03473765661412362,-9.822735804875906,0.19436253911495022
1560000088409183232,-0.013962633893243037,-0.08550204509265313,-0.0017453292821301147,0.0728898488344125,-9.812219271201522,0.0554730756148165
1560000088414192896,-0.01570796220039483,-0.08724737339980493,0.0,0.11717662864784492,-9.888919841322531,-0.034312429615395185
1560000088419202304,-0.013962633893243037,-0.08899270170695672,0.0,0.11495558887559414,-9.91838547509862,-0.13776174167122482
1560000088424211968,-0.012217304654768668,-0.08724737339980493,-0.003490658404189162,0.010392285839708111,-10.009836574110599,-0.16904269216678475
1560000088429221120,-0.010471975416294299,-0.08724737339980493,-0.005235987642663531,0.00935575333382823,-9.970213477415333,-0.1172118253181124
1560000088434230784,-0.005235987700871192,-0.09073803001410852,-0.0017453292821301147,0.0516854740034013,-9.87976192124751,-0.04244484777842825
1560000088438059776,0.0,-0.0942286940789927,-0.003490658404189162,0.16727703046942388,-9.899948746522652,0.017850350195805855
1560000088443068672,0.0,-0.0959740223861445,-0.003490658404189162,0.1536079153661006,-9.73886942681959,0.0756333144629487
1560000088448078848,0.0,-0.09771935069329629,-0.0017453292821301147,0.10071132698967454,-9.7981232671066,0.1647327099790767
1560000088453087744,0.0,-0.0959740223861445,0.0,0.12382108884769566,-9.721804493734144,0.35569988075522996
1560000088458097152,0.0,-0.0942286940789927,-0.0017453292821301147,0.1702734190594163,-9.78740389263505,0.4998295169638803
1560000088463106048,0.0,-0.0942286940789927,0.0,0.14050132845337054,-9.810618387483084,0.5328155760805375
1560000088468115456,0.0,-0.09771935069329629,0.0,0.04491409665107581,-9.834324097355335,0.5660185658816085
1560000088473124352,-0.005235987700871192,-0.09771935069329629,0.0,0.046004566210820774,-9.756370975222865,0.5148254722996182
1560000088478133248,-0.00872664617781993,-0.09771935069329629,0.0,0.1305335808534059,-9.75846555143652,0.4855313331558052
