#timestamp [ns],w_RS_S_x [rad s^-1],w_RS_S_y [rad s^-1],w_RS_S_z [rad s^-1],a_RS_S_x [m s^-2],a_RS_S_y [m s^-2],a_RS_S_z [m s^-2]
1560000002518434048,-0.004041737717061705,-0.01704106985794096,-0.00014222933624614964,0.07048396915281341,9.755802292960322,-0.1342986151328831
1560000002528456960,-0.0019203490810468793,-0.012788244411989225,0.0019728016232188617,0.07048396915281341,9.766403457375873,-0.1342986151328831
1560000002538480384,-0.0008596547630394663,-0.013851450773477159,0.004087832467118913,0.07048396915281341,9.766403457375873,-0.1342986151328831
1560000002548503040,0.0012617339888877088,-0.01810427528993408,-0.0022572601801462006,0.07048396915281341,9.766403457375873,-0.14080969926073528
1560000002558525696,0.00020103955496794668,-0.013851450773477159,-0.00014222933624614964,0.07048396915281341,9.766403457375873,-0.15310893384400992
1560000002568549120,0.003383122624902535,-0.0064090067078090285,-0.00014222933624614964,0.08176089182136191,9.789037086702276,-0.18828839836506012
1560000002578572032,0.0023224281909827726,-0.010661831689013357,0.0019728016232188617,0.09388414638319037,9.80531790397174,-0.2211150260365368
1560000002588595200,-0.0008596547630394663,-0.008535419430784896,0.005145348004633898,0.10600817117209316,9.80531790397174,-0.2457140851296557
1560000002598618368,0.0012617339888877088,-0.005345800578694798,0.0009152860857038758,0.10926123966921075,9.814219132165864,-0.27031314071649204
1560000002608641280,0.00020103955496794668,-0.005345800578694798,-0.00014222933624614964,0.11086758674888902,9.823160873102093,-0.2883937967084607
1560000002618664192,-0.0019203490810468793,-2.9769236002535893e-05,0.0030303169296039267,0.122991325506985,9.810995764777882,-0.26379532754191143
1560000002628686848,-0.0019203490810468793,-0.001092975481303618,-0.001199744758196175,0.12864987776019277,9.798829782200524,-0.23263837559762277
1560000002638710272,-0.0008596547630394663,0.001033437125485398,-0.00014222933624614964,0.12864987776019277,9.786661912843178,-0.19573781391117934
1560000002648733440,-0.005102432150981467,0.004223055977575496,-0.00014222933624614964,0.11732368744374531,9.77449422344142,-0.18181636610940155
1560000002658756608,-0.004041737717061705,-0.001092975481303618,-0.001199744758196175,0.10519863940225464,9.766403457375873,-0.1736372112733422
1560000002668779520,-0.0029810433990542923,0.008475880958779825,0.0009152860857038758,0.09307371286364646,9.766403457375873,-0.1736372112733422
1560000002678802432,-0.0029810433990542923,0.004223055977575496,-0.003314775602096226,0.08095000296200651,9.766403457375873,-0.16458544810149545
1560000002688825600,-0.004041737717061705,0.004223055977575496,-0.006487321983511263,0.07048396915281341,9.766403457375873,-0.157331364768174
1560000002698848256,0.0012617339888877088,0.006349468235803957,0.0019728016232188617,0.07048396915281341,9.766403457375873,-0.18192998297119384
1560000002708871680,0.0023224281909827726,0.01379191183672468,0.004087832467118913,0.07700174188270048,9.77948511593982,-0.19991862809222585
1560000002718894336,0.0023224281909827726,0.015918324559700547,0.0019728016232188617,0.08912591242206032,9.803819235268609,-0.21221830190499769
1560000002728917760,-0.0008596547630394663,0.009539087320267758,-0.001199744758196175,0.07849532802392825,9.80531790397174,-0.2245177815377242
1560000002738940672,-0.0029810433990542923,0.008475880958779825,-0.001199744758196175,0.062260776619916205,9.80531790397174,-0.22847399818819544
1560000002748963840,-0.0029810433990542923,0.007412674597291891,-0.001199744758196175,0.038014527911612216,9.80531790397174,-0.2161753761212416
1560000002758986752,-0.004041737717061705,0.011665499113748812,-0.00014222933624614964,0.03170669674789384,9.796316228379856,-0.194776679722045
1560000002769009920,-0.0019203490810468793,0.004223055977575496,-0.00014222933624614964,0.03341196234160416,9.784148940234491,-0.17190726079263796
1560000002779032832,-0.004041737717061705,0.004223055977575496,0.0030303169296039267,0.04553569991880491,9.771982618433139,-0.15960802381338457
1560000002789055744,-0.004041737717061705,0.008475880958779825,-0.003314775602096226,0.04453162342672244,9.766403457375873,-0.14730918887153294
1560000002799078912,-0.005102432150981467,0.004223055977575496,0.0009152860857038758,0.03240885968129345,9.766403457375873,-0.13501094221671925
1560000002809101824,-0.0019203490810468793,0.008475880958779825,0.0030303169296039267,0.05455071918418335,9.766403457375873,-0.15747331817699844
1560000002819124736,-0.005102432150981467,0.010602293681755692,-0.00014222933624614964,0.07464143723989745,9.766403457375873,-0.1778548607358053
1560000002829148160,0.0023224281909827726,0.006349468235803957,-0.00014222933624614964,0.08676575160234892,9.766403457375873,-0.19015468045357808
1560000002839171072,0.00020103955496794668,0.011665499113748812,-0.00014222933624614964,0.0898726053552732,9.7754521675163,-0.20245407154037856
1560000002849193984,-0.004041737717061705,0.006349468235803957,-0.0022572601801462006,0.0898726053552732,9.785860195516761,-0.2129758035820819
1560000002859216640,-0.0029810433990542923,0.007412674597291891,0.0009152860857038758,0.0898726053552732,9.785860195516761,-0.2129758035820819
1560000002869240064,0.0023224281909827726,0.009539087320267758,0.004087832467118913,0.0898726053552732,9.792493689377268,-0.20627017554872973
1560000002879262976,-0.0008596547630394663,0.01272870640473156,-0.00014222933624614964,0.0898726053552732,9.804659532165935,-0.19397203852342254
1560000002889285888,0.0012617339888877088,0.009539087320267758,0.0019728016232188617,0.06693731664622632,9.79380940599459,-0.14677192766159297
1560000002899309056,-0.0019203490810468793,0.01272870640473156,0.0030303169296039267,0.055298530425526925,9.773206522669271,-0.11462931706265356
1560000002909332224,-0.0019203490810468793,0.011665499113748812,0.0009152860857038758,0.06742219573299077,9.736708381570917,-0.11462931706265356
1560000002919355136,-0.0008596547630394663,0.011665499113748812,-0.00014222933624614964,0.0614226352034174,9.745676821094902,-0.11462931706265356
1560000002929378560,0.00020103955496794668,0.01910794364416435,0.0009152860857038758,0.05289165045671392,9.766403457375873,-0.11645163731728238
1560000002939401216,0.003383122624902535,0.009539087320267758,0.0009152860857038758,0.06501455868152918,9.766403457375873,-0.12875003174079924
1560000002949424384,0.003383122624902535,0.01698153092118848,0.0009152860857038758,0.07712135961208104,9.766403457375873,-0.1544990262009654
1560000002959488512,0.003383122624902535,0.008475880958779825,0.0009152860857038758,0.08926392379976439,9.766403457375873,-0.19145402975500414
1560000002969511168,0.005504511492742059,0.018044737282676415,-0.001199744758196175,0.0898726053552732,9.766403457375873,-0.22834543529141274
1560000002979534336,0.006565205463012425,0.015918324559700547,0.0019728016232188617,0.09836839935998026,9.774929305162003,-0.26093317831490614
1560000002989556992,0.004443817058822297,0.01698153092118848,-0.00014222933624614964,0.12261457643872264,9.799261252835686,-0.28553033061551897
1560000002999580160,0.003383122624902535,0.018044737282676415,0.0030303169296039267,0.12864987776019277,9.81445512766708,-0.3101289279589196
1560000003009603328,-0.0008596547630394663,0.01910794364416435,0.0019728016232188617,0.12864987776019277,9.824772701484449,-0.3328595474309831
1560000003019626496,0.0012617339888877088,0.022297560869638522,0.004087832467118913,0.12864987776019277,9.824772701484449,-0.3451585305568391
1560000003029649408,0.0012617339888877088,0.020171150005652283,-0.001199744758196175,0.12864987776019277,9.818049501296795,-0.3506608919895484
1560000003039672320,-0.004041737717061705,0.01910794364416435,0.0009152860857038758,0.12864987776019277,9.805883669139048,-0.3506608919895484
1560000003049695488,-0.004041737717061705,0.022297560869638522,-0.0022572601801462006,0.10553184803918794,9.793717709980072,-0.3154818757301572
1560000003059718912,-0.005102432150981467,0.028676799038566125,-0.003314775602096226,0.0898726053552732,9.78155149197124,-0.2829414466336693
1560000003069741568,-0.0029810433990542923,0.025487179954102324,-0.0022572601801462006,0.0898726053552732,9.769386183377868,-0.25834502602096143
1560000003079764480,-0.0008596547630394663,0.02442397545160402,0.0009152860857038758,0.06241954919562229,9.766403457375873,-0.23374743159190295
1560000003089787904,0.00020103955496794668,0.028676799038566125,-0.00014222933624614964,0.027934801913696787,9.76451088553916,-0.2148890525905947
1560000003099810816,-0.006163126353076531,0.023360769090116085,-0.003314775602096226,0.0036891311285576767,9.752345468498856,-0.22718738211182857
1560000003109833728,-0.0019203490810468793,0.022297560869638522,0.0019728016232188617,-0.0070705737685035075,9.746946719234984,-0.2326451150633293
1560000003119856640,-0.0019203490810468793,0.022297560869638522,-0.00014222933624614964,-0.0070705737685035075,9.746946719234984,-0.2326451150633293
1560000003129880064,0.0012617339888877088,0.028676799038566125,0.0009152860857038758,0.016136143626254044,9.770234950585278,-0.24441643401606417
1560000003139902720,0.003383122624902535,0.020171150005652283,-0.001199744758196175,0.040386815181070755,9.785860195516761,-0.26112017092924994
1560000003149925632,-0.0008596547630394663,0.021234356367140217,0.0030303169296039267,0.06463934069033067,9.785860195516761,-0.28572376355700385
1560000003159949056,0.0012617339888877088,0.023360769090116085,-0.00014222933624614964,0.09809261649709668,9.776624988250804,-0.2916529958630001
1560000003169971968,0.004443817058822297,0.02442397545160402,0.0019728016232188617,0.12671150424048358,9.766403457375873,-0.28968656286793126
1560000003179995136,0.0023224281909827726,0.025487179954102324,0.0030303169296039267,0.11458693605590173,9.766403457375873,-0.277386482059615
1560000003190018304,0.0023224281909827726,0.022297560869638522,0.0019728016232188617,0.10246226806125008,9.766403457375873,-0.2788810854376441
1560000003200041216,0.004443817058822297,0.02761359453606782,0.0009152860857038758,0.09033752188331394,9.766403457375873,-0.29118134921208666
1560000003210064128,0.005504511492742059,0.03186641812302993,-0.0022572601801462006,0.06655247992924812,9.789806077498913,-0.2916529958630001
1560000003220087040,0.003383122624902535,0.02974000540005406,0.0019728016232188617,0.06428402357772309,9.80090601199573,-0.28719312619806603
1560000003230110208,0.004443817058822297,0.03186641812302993,0.0019728016232188617,0.10065826447351867,9.788738070076722,-0.2748928624236235
1560000003240133376,0.004443817058822297,0.030803209902552364,0.0019728016232188617,0.10926123966921075,9.785860195516761,-0.28137394734981136
1560000003250156288,0.005504511492742059,0.033992830846005795,-0.001199744758196175,0.10926123966921075,9.785860195516761,-0.2936728809374929
1560000003260179200,-0.0008596547630394663,0.03611924356898166,0.0019728016232188617,0.10926123966921075,9.785860195516761,-0.3059724128800881
1560000003270202368,0.004443817058822297,0.03718244807147997,-0.001199744758196175,0.11611161686445085,9.792734976594533,-0.31827183603775083
1560000003280225280,0.006565205463012425,0.03930886451243509,0.0030303169296039267,0.12823517529295544,9.804901724162452,-0.33057088288920705
1560000003290248704,0.006565205463012425,0.0414352735174317,0.0030303169296039267,0.12864987776019277,9.793566058189576,-0.3072323119358263
1560000003300271360,0.004443817058822297,0.05313054163480935,0.0009152860857038758,0.12864987776019277,9.790321647627213,-0.2916529958630001
1560000003310294272,0.006565205463012425,0.058446575301238646,0.0009152860857038758,0.12864987776019277,9.802489770549448,-0.2916529958630001
1560000003320317184,0.005504511492742059,0.04781451168635931,0.0019728016232188617,0.13795545326058153,9.80531790397174,-0.28221271302754897
1560000003330340352,0.003383122624902535,0.05632016257826278,0.0009152860857038758,0.14803851207413032,9.801221890165886,-0.2740540218850572
1560000003340363520,0.003383122624902535,0.05738337079874034,-0.0022572601801462006,0.14803851207413032,9.776886613116972,-0.2863542856594997
1560000003350386688,0.003383122624902535,0.06269940074719038,-0.00014222933624614964,0.15493954163048035,9.77332872724307,-0.28465206713322616
1560000003360409856,0.005504511492742059,0.06588901797266455,-0.00014222933624614964,0.16706320575705602,9.78549497652084,-0.27235290107389915
1560000003370432768,0.0023224281909827726,0.0722682524236129,0.0009152860857038758,0.15566724797730877,9.762257783893874,-0.24812344168202008
1560000003380455936,0.004443817058822297,0.06695222619314212,0.0009152860857038758,0.15253375435129263,9.746946719234984,-0.24176573859508324
1560000003390478848,0.005504511492742059,0.07120505163909385,0.0009152860857038758,0.16465767108251905,9.746946719234984,-0.266364564068324
1560000003400502016,0.008686594330851949,0.07545787708504559,-0.00014222933624614964,0.14871768674293878,9.76572189706229,-0.2909639894745228
1560000003410524928,0.007625899896932187,0.07439466886456803,-0.00014222933624614964,0.1307399210884653,9.78795768485414,-0.3176831959487771
1560000003420548096,0.0023224281909827726,0.07652107786956464,0.0009152860857038758,0.1428645949623311,9.800125554211487,-0.3545837672198766
1560000003430571008,0.006565205463012425,0.07864749431051976,-0.003314775602096226,0.10633618830732919,9.819267156958908,-0.3844322009400522
1560000003440593920,0.0023224281909827726,0.08077391075147489,-0.003314775602096226,0.03358943579342599,9.843600641598416,-0.4090321241504247
1560000003450617088,0.0023224281909827726,0.0850267287614681,0.0009152860857038758,0.07916797236452569,9.832322820402258,-0.3976317173387183
1560000003460568064,0.0023224281909827726,0.08396352054099054,-0.0022572601801462006,0.08652071613932792,9.820209076847775,-0.3761576717525458
1560000003470590976,-0.0019203490810468793,0.07864749431051976,-0.003314775602096226,0.02590239078289687,9.808044041039912,-0.3392601735745647
1560000003480614144,0.0012617339888877088,0.0775842860900422,-0.0022572601801462006,0.01231806054543405,9.80531790397174,-0.3309915881717398
1560000003490637056,-0.0008596547630394663,0.07652107786956464,-0.001199744758196175,0.016604212493790974,9.798865986349098,-0.32446929319672857
1560000003500659968,0.0012617339888877088,0.07864749431051976,0.0019728016232188617,0.04085529482985783,9.762360984338557,-0.28756609555816914
1560000003510682880,-0.004041737717061705,0.07652107786956464,-0.00014222933624614964,0.03708783124488362,9.753975070529151,-0.27198369204519146
1560000003520706048,-0.0008596547630394663,0.0775842860900422,0.0009152860857038758,0.012842303754025633,9.766140415078178,-0.27198369204519146
1560000003530729216,-0.0008596547630394663,0.0775842860900422,-0.00014222933624614964,0.02418022601143994,9.766403457375873,-0.2599498206453852
1560000003540752128,0.00020103955496794668,0.07439466886456803,0.0009152860857038758,0.040901640734786346,9.77101707783646,-0.2616424488335919
1560000003550775040,0.0012617339888877088,0.07014184341861629,0.0009152860857038758,0.06515019793100832,9.78318394255904,-0.286242015705044
1560000003560798208,0.0012617339888877088,0.06801543441361968,0.0009152860857038758,0.04211430095973255,9.785860195516761,-0.320433332557845
1560000003570821376,-0.0008596547630394663,0.06907864263409724,0.0019728016232188617,0.010126918774888811,9.785860195516761,-0.3506608919895484
1560000003580844288,0.0023224281909827726,0.07014184341861629,0.0009152860857038758,-0.0019964569676686177,9.785860195516761,-0.3506608919895484
1560000003590867200,-0.0008596547630394663,0.06376260153170943,-0.00014222933624614964,-0.014120856522450036,9.778785149568765,-0.3292038742013227
1560000003600890368,0.00020103955496794668,0.06588901797266455,0.0019728016232188617,-0.026245785423080512,9.76661763344466,-0.2923025435481417
1560000003610913536,0.0012617339888877088,0.05950977980373695,-0.00014222933624614964,-0.01454877243187687,9.766403457375873,-0.30373584823282196
1560000003620936704,0.0023224281909827726,0.05738337079874034,0.0019728016232188617,0.00222127401212994,9.766403457375873,-0.3113222996808087
1560000003630959872,0.00020103955496794668,0.05206733713231104,-0.00014222933624614964,0.026470406838365594,9.766403457375873,-0.3113222996808087
1560000003640982528,0.006565205463012425,0.049940924409335175,0.005145348004633898,0.0031921135839960597,9.766403457375873,-0.32096474447153955
1560000003651005440,0.003383122624902535,0.04781451168635931,0.0009152860857038758,-0.019741171419931605,9.7686506698201,-0.3309915881717398
1560000003661028608,0.003383122624902535,0.049940924409335175,0.0019728016232188617,0.016635235081723036,9.780818728959117,-0.3309915881717398
1560000003671051776,0.005504511492742059,0.0414352735174317,0.004087832467118913,0.038806760709357985,9.785860195516761,-0.3381944318233317
1560000003681074688,0.005504511492742059,0.046751303465881744,0.0030303169296039267,0.050929236092186,9.785860195516761,-0.3504923907328139
1560000003691097856,0.004443817058822297,0.0414352735174317,0.0009152860857038758,0.003272490755659975,9.761864786349788,-0.32640334142619865
1560000003701120768,0.005504511492742059,0.033992830846005795,-0.003314775602096226,-0.012393930131458569,9.75635650960918,-0.33034748142875264
1560000003711143936,0.005504511492742059,0.03292962634350749,-0.00014222933624614964,0.02397165682095552,9.78068538951885,-0.37953681972417463
1560000003721166848,0.006565205463012425,0.0350560353485041,0.0009152860857038758,0.022162901685684796,9.80501435254125,-0.34158975758916826
1560000003731189760,0.008686594330851949,0.0350560353485041,0.0030303169296039267,0.01231806054543405,9.817916251220163,-0.2962739757257883
1560000003741212928,0.0023224281909827726,0.028676799038566125,-0.00014222933624614964,0.01231806054543405,9.781420281466987,-0.3208708348586846
1560000003751236096,0.003383122624902535,0.02442397545160402,0.0019728016232188617,0.03372420152787403,9.787884429621325,-0.33823025942490476
1560000003761259264,0.004443817058822297,0.022297560869638522,0.0009152860857038758,0.07009465648086183,9.824382027859162,-0.35052924255076073
1560000003771282176,0.005504511492742059,0.02761359453606782,-0.001199744758196175,0.04649854472804431,9.788668793022865,-0.3506608919895484
1560000003781305088,0.003383122624902535,0.025487179954102324,-0.001199744758196175,0.036433459040699834,9.775890423704707,-0.341070523031394
1560000003791328512,0.006565205463012425,0.025487179954102324,-0.001199744758196175,0.048557052082726364,9.800223383953048,-0.31647234711962724
1560000003801351168,0.004443817058822297,0.026550388174579886,-0.00014222933624614964,0.07026280161660248,9.795700027468376,-0.32104475944797634
1560000003811374080,0.007625899896932187,0.025487179954102324,0.0009152860857038758,0.09219038218413363,9.790511915860982,-0.3380455749390225
1560000003821397504,0.004443817058822297,0.026550388174579886,-0.003314775602096226,0.10431451502749828,9.814844748384484,-0.3749444996227767
1560000003831420416,0.005504511492742059,0.020171150005652283,0.0019728016232188617,0.1020845149914286,9.810369193876287,-0.38271889048985347
1560000003841443328,0.0012617339888877088,0.022297560869638522,0.0009152860857038758,0.08996113924887117,9.786037880835242,-0.37042002657281614
1560000003851466752,0.0023224281909827726,0.02974000540005406,-0.004372291139611212,0.10190748695649086,9.785860195516761,-0.3337029161748046
1560000003861489664,0.004443817058822297,0.03186641812302993,-0.0022572601801462006,0.0997229238794684,9.77628837624456,-0.29680771575450243
1560000003871512576,0.00020103955496794668,0.03292962634350749,-0.00014222933624614964,0.07547833487862324,9.75195862774803,-0.2599143973145731
1560000003881535232,0.008686594330851949,0.03718244807147997,-0.00014222933624614964,0.06085943168752931,9.746946719234984,-0.2718421182193573
1560000003891558656,0.0023224281909827726,0.030803209902552364,-0.004372291139611212,0.05109533295035362,9.756413808915047,-0.3012236332159966
1560000003901581824,0.00020103955496794668,0.03292962634350749,-0.0022572601801462006,0.05109533295035362,9.805074580421323,-0.35041663900154174
1560000003911604736,0.007625899896932187,0.03611924356898166,0.0019728016232188617,0.058310775530324266,9.817532637103845,-0.3849699846812967
1560000003921627648,0.0023224281909827726,0.03611924356898166,0.0009152860857038758,0.07043408019688299,9.80536796316753,-0.40956756590980437
1560000003931650816,0.005504511492742059,0.0350560353485041,-0.001199744758196175,0.07048396915281341,9.80531790397174,-0.3851742506824701
1560000003941673728,0.005504511492742059,0.0403720690149334,0.0030303169296039267,0.08007940776459864,9.790873949758875,-0.3605958658159078
1560000003951696896,0.0012617339888877088,0.03611924356898166,-0.00014222933624614964,0.10428245805795985,9.754441248306374,-0.3360424442533916
1560000003961747968,0.004443817058822297,0.0350560353485041,-0.00014222933624614964,0.11892427043876108,9.766340661032055,-0.3113857743891331
1560000003971770880,0.004443817058822297,0.03611924356898166,0.0019728016232188617,0.12864987776019277,9.783454292118234,-0.29651736995507666
1560000003981793536,0.0012617339888877088,0.0414352735174317,-0.001199744758196175,0.12864987776019277,9.771289345393761,-0.32111305892340913
1560000003991816960,0.003383122624902535,0.03930886451243509,-0.004372291139611212,0.12139499960016727,9.773683817344494,-0.3309915881717398
1560000004001840128,0.0023224281909827726,0.03611924356898166,-0.0022572601801462006,0.10927133311181524,9.785850066622263,-0.3309915881717398
1560000004011863040,0.003383122624902535,0.042498481737909266,-0.004372291139611212,0.09714867800994141,9.785860195516761,-0.3432794910446536
1560000004021885952,0.0023224281909827726,0.03930886451243509,-0.004372291139611212,0.08502623927822354,9.790723826831963,-0.3506608919895484
1560000004031908864,0.0023224281909827726,0.0456881026813627,-0.0022572601801462006,0.0729038361200652,9.802889416198957,-0.3506608919895484
1560000004041932032,0.0012617339888877088,0.046751303465881744,0.0019728016232188617,0.0801862167538361,9.80531790397174,-0.3506608919895484
1560000004051954944,0.007625899896932187,0.04887771990683687,0.0030303169296039267,0.08743698615418483,9.802873607847596,-0.3506608919895484
1560000004061978112,0.004443817058822297,0.049940924409335175,-0.0022572601801462006,0.0753136814876261,9.790707113760567,-0.3506608919895484
1560000004072001280,0.003383122624902535,0.0414352735174317,-0.0022572601801462006,0.05589873688082635,9.793178791686524,-0.3580590809431555
1560000004082024192,0.0023224281909827726,0.04781451168635931,-0.00014222933624614964,0.031757451585126044,9.805266969589809,-0.3702014872385311
1560000004092047360,0.004443817058822297,0.05738337079874034,0.0009152860857038758,0.05600499831329857,9.780933647421575,-0.30870510883770913
1560000004102070528,-0.0008596547630394663,0.046751303465881744,-0.001199744758196175,0.08513466039115093,9.756602267574287,-0.24225815682134152
1560000004112093184,-0.0019203490810468793,0.046751303465881744,0.0019728016232188617,0.12150013974148352,9.732274066294233,-0.16847437967560439
1560000004122116608,0.003383122624902535,0.05313054163480935,-0.001199744758196175,0.13839004661207654,9.73726484577886,-0.17373024021666583
1560000004132139520,0.004443817058822297,0.05206733713231104,-0.001199744758196175,0.14308985391668513,9.751912759389267,-0.20334709221656677
1560000004142162432,0.007625899896932187,0.05100413262981274,-0.00014222933624614964,0.11884598487102163,9.776241784216893,-0.25253671393182875
1560000004152185344,0.006565205463012425,0.04356168624040757,-0.00014222933624614964,0.07261416910044025,9.800570145872163,-0.31659677021845517
1560000004162208768,0.010807983198691473,0.05206733713231104,-0.0022572601801462006,0.012130336498287509,9.824772701484449,-0.39006298008387935
1560000004172231680,0.004443817058822297,0.049940924409335175,-0.0022572601801462006,-0.02423708846942424,9.824772701484449,-0.4023609294104444
1560000004182254592,0.0023224281909827726,0.0403720690149334,-0.005429806445996277,-0.05076710075646608,9.819836660076016,-0.38970692952716823
1560000004192278016,0.0012617339888877088,0.044624894460885134,-0.001199744758196175,-0.06289105326705997,9.807671334900032,-0.3405091046393066
1560000004202300928,0.00020103955496794668,0.033992830846005795,-0.001199744758196175,-0.07501457957494659,9.79550497697781,-0.291313047889068
1560000004212323584,-0.007223820786996293,0.03611924356898166,-0.00014222933624614964,-0.08211291321679982,9.783339156465592,-0.24721724153100505
1560000004222346752,-0.0019203490810468793,0.030803209902552364,-0.001199744758196175,-0.06999014120576824,9.771173811916565,-0.22262074342980506
1560000004232370176,-0.0008596547630394663,0.03611924356898166,-0.0022572601801462006,-0.04312763967369049,9.766403457375873,-0.2129758035820819
1560000004242393088,0.0023224281909827726,0.02761359453606782,0.0019728016232188617,-0.006759109743235197,9.766403457375873,-0.21276515516275799
1560000004252416256,-0.0019203490810468793,0.025487179954102324,0.0019728016232188617,0.029612966985319823,9.766403457375873,-0.1881661008617106
1560000004262439168,0.007625899896932187,0.020171150005652283,0.0030303169296039267,0.06102151182482807,9.771383979499337,-0.17867214384736507
1560000004272462336,-0.0029810433990542923,0.023360769090116085,-0.001199744758196175,0.08526884243975576,9.783550228777106,-0.19097130511476315
1560000004282485248,0.005504511492742059,0.02974000540005406,0.0030303169296039267,0.07022961442395559,9.785860195516761,-0.2132338479834923
1560000004292508416,-0.0008596547630394663,0.014855118198212613,-0.0022572601801462006,0.056208229994551676,9.788425751417844,-0.23783202176149107
1560000004302531328,0.0012617339888877088,0.01698153092118848,-0.004372291139611212,0.08045426257673352,9.800591956102064,-0.2624290178905404
1560000004312554240,0.004443817058822297,0.014855118198212613,-0.0022572601801462006,0.07504433880069541,9.812757337056961,-0.27198369204519146
1560000004322577664,0.003383122624902535,0.015918324559700547,-0.0022572601801462006,0.05109533295035362,9.824772701484449,-0.2721349426226431
1560000004332600576,0.0023224281909827726,0.01698153092118848,0.0009152860857038758,0.05109533295035362,9.824772701484449,-0.2844336331941907
1560000004342623488,-0.0019203490810468793,0.014855118198212613,-0.001199744758196175,0.06110962742884079,9.819748467977842,-0.27641411343958333
1560000004352646656,-0.0019203490810468793,0.01698153092118848,-0.001199744758196175,0.08535804004694933,9.807582889322289,-0.23951498793097603
1560000004362669824,-0.0029810433990542923,0.025487179954102324,0.0019728016232188617,0.0800061270997632,9.795416276267325,-0.1926079039797306
1560000004372692480,-0.005102432150981467,0.021234356367140217,-0.00014222933624614964,0.08348855929498558,9.77803016437699,-0.1460522077139578
1560000004382715648,-0.004041737717061705,0.018044737282676415,-0.003314775602096226,0.14411319553105995,9.741528222802806,-0.10915087945699076
1560000004392738816,-0.004041737717061705,0.025487179954102324,-0.001199744758196175,0.10028089704080931,9.742464378144584,-0.07225394211113502
1560000004402761984,0.0023224281909827726,0.02761359453606782,-0.0022572601801462006,-0.006291867368124355,9.766598817775794,-0.036149621341099065
1560000004412784896,-0.0029810433990542923,0.021234356367140217,-0.0022572601801462006,0.042205967247489276,9.778765863482883,-0.04844958773852795
1560000004422807808,-0.0019203490810468793,0.021234356367140217,0.0019728016232188617,0.06542939913189104,9.780787871487112,-0.06587689861830637
1560000004432830976,0.004443817058822297,0.02761359453606782,-0.001199744758196175,0.05330627477773905,9.768622165062736,-0.0904741259812111
1560000004442853888,0.0023224281909827726,0.01698153092118848,-0.001199744758196175,0.04120109787425018,9.806119410363989,-0.1351098586937041
1560000004452877312,0.004443817058822297,0.025487179954102324,0.0009152860857038758,0.044767610205910906,9.8363663362507,-0.17628720658162222
1560000004462929152,0.0023224281909827726,0.01698153092118848,-0.0022572601801462006,0.1055604090912562,9.799762537311594,-0.18862176743306777
1560000004472952064,0.0023224281909827726,0.026550388174579886,0.0009152860857038758,0.09112413627099678,9.800922839679995,-0.17807892799510122
1560000004482975232,0.00020103955496794668,0.02761359453606782,0.0019728016232188617,0.033624216255789735,9.823810586172796,-0.15250895387883276
1560000004492998400,-0.0008596547630394663,0.023360769090116085,0.005145348004633898,0.13063085898977733,9.775137508312524,-0.07870080772963285
1560000004503021568,0.00020103955496794668,0.026550388174579886,0.0009152860857038758,0.1562086223212551,9.746946719234984,-0.004901900977953632
1560000004513044480,-0.0019203490810468793,0.028676799038566125,0.0019728016232188617,0.08347700928066658,9.746946719234984,0.06888253399056178
1560000004523067392,0.004443817058822297,0.02442397545160402,0.0030303169296039267,0.09039917798958053,9.736954636909681,0.06186016976395024
1560000004533090560,0.005504511492742059,0.03186641812302993,-0.0022572601801462006,0.10656916676576303,9.740998326870521,0.020876735733404244
1560000004543113472,0.006565205463012425,0.0350560353485041,0.0019728016232188617,0.09444705314236558,9.80182058019755,-0.0775039863965972
1560000004553136896,0.007625899896932187,0.03930886451243509,0.004087832467118913,0.09742219525867427,9.824772701484449,-0.15292369250137722
1560000004563159808,0.006565205463012425,0.03718244807147997,0.0030303169296039267,0.10812046028094878,9.825345108940027,-0.2138437731473448
1560000004573182464,-0.0008596547630394663,0.0350560353485041,0.0030303169296039267,0.05962983874086248,9.849676187832937,-0.2507381842232664
1560000004583205376,0.00020103955496794668,0.03611924356898166,-0.001199744758196175,0.04199150753270576,9.868847616000265,-0.26676684986277327
1560000004593228800,0.0023224281909827726,0.0456881026813627,0.0030303169296039267,0.06624049694464441,9.881014697589773,-0.25446685198317914
1560000004603251968,-0.004041737717061705,0.03930886451243509,-0.0022572601801462006,0.13049968795982178,9.853030127069886,-0.19142992699957145
1560000004613274880,-0.005102432150981467,0.03930886451243509,0.004087832467118913,0.17586363296375698,9.811034687603177,-0.11207721528085897
1560000004623298048,-0.008284515220916056,0.03611924356898166,0.0019728016232188617,0.12736564705406583,9.750200493208553,-0.013677186717666767
1560000004633320960,-0.006163126353076531,0.04356168624040757,-0.00014222933624614964,0.10926123966921075,9.71986690121971,0.053885129609561
1560000004643343616,-0.006163126353076531,0.030803209902552364,-0.001199744758196175,0.10760327803820122,9.70736869918794,0.10240574246449766
1560000004653367040,-0.0019203490810468793,0.030803209902552364,0.0009152860857038758,0.046992525925790875,9.683039240570377,0.12700099185106745
1560000004663390208,-0.0008596547630394663,0.02974000540005406,-0.00014222933624614964,0.03307118373746375,9.689946495180918,0.12528139706795569
1560000004673413376,0.0012617339888877088,0.03611924356898166,-0.001199744758196175,0.08157089461594107,9.738615952879206,0.0883800664147747
1560000004683436288,0.007625899896932187,0.03930886451243509,-0.00014222933624614964,0.09992225390392903,9.767116616408051,-0.009692457802244758
1560000004693459200,0.007625899896932187,0.03824565629195753,-0.00014222933624614964,0.09533518236382907,9.799835167906508,-0.10061107715986693
1560000004703482368,0.004443817058822297,0.03824565629195753,-0.005429806445996277,0.03472316775380256,9.86066008138254,-0.12520684125131534
1560000004713505536,0.003383122624902535,0.0350560353485041,-0.0022572601801462006,0.03525004962683659,9.844789658006677,-0.1110346720749319
1560000004723528704,0.0023224281909827726,0.03186641812302993,0.0009152860857038758,0.0693385417946885,9.786243364835773,-0.0741287128320176
1560000004733551616,0.006565205463012425,0.03611924356898166,0.0030303169296039267,0.03296949292141574,9.798409569519993,-0.03723320066967206
1560000004743574272,0.004443817058822297,0.03186641812302993,0.0030303169296039267,0.04375469625154784,9.789544113840739,-0.010967543991739773
1560000004753597696,0.006565205463012425,0.03186641812302993,-0.0022572601801462006,0.11649950039733878,9.75304334815946,0.0013320927773974242
1560000004763620608,0.003383122624902535,0.0350560353485041,-0.001199744758196175,0.07817017026691903,9.777341433961475,-0.08879230505807865
1560000004773643776,0.004443817058822297,0.030803209902552364,-0.001199744758196175,0.017563322480401034,9.81667220477022,-0.20233343097818637
1560000004783666944,0.005504511492742059,0.03292962634350749,-0.00014222933624614964,-0.04305319849068648,9.865335147533814,-0.3253214089975206
1560000004793689856,0.0023224281909827726,0.03611924356898166,-0.00014222933624614964,-0.03448714551935411,9.898572172747187,-0.35473297493703554
1560000004803712512,-0.0019203490810468793,0.02974000540005406,0.0019728016232188617,0.01231806054543405,9.921208480164221,-0.3284199983867587
1560000004813736192,-0.007223820786996293,0.025487179954102324,0.0019728016232188617,0.01231806054543405,9.896875430784558,-0.2546215152876631
1560000004823759104,-0.009345209654835818,0.026550388174579886,-0.003314775602096226,0.022882091290301245,9.846039908293564,-0.1593910482320227
1560000004833782272,-0.010405903625106183,0.01698153092118848,-0.0022572601801462006,0.0471319467295399,9.760867295424829,-0.036386619111323265
1560000004843805440,-0.005102432150981467,0.01698153092118848,-0.001199744758196175,0.010530239009171063,9.736770332389737,0.004293320004727059
1560000004853828096,-0.008284515220916056,0.007412674597291891,0.0019728016232188617,-0.014958969251407939,9.727490951408186,0.017222408486828066
1560000004863851264,-0.005102432150981467,0.01272870640473156,0.0019728016232188617,0.03353352816520004,9.727490951408186,-0.007374816480219117
1560000004873874432,-0.0019203490810468793,0.015918324559700547,-0.00014222933624614964,0.0897546730681977,9.743008616669831,-0.0711893664173245
1560000004883897856,-0.0019203490810468793,0.006349468235803957,-0.001199744758196175,0.14478088215328627,9.76873850900648,-0.15680058487622597
1560000004893920512,0.00020103955496794668,0.00528626233906343,-0.00014222933624614964,0.05993314571435088,9.82955691077073,-0.23057997293895693
1560000004903943424,-0.004041737717061705,0.011665499113748812,0.0009152860857038758,0.017637852928427955,9.863687148080317,-0.2773804931165064
1560000004913966592,-0.0029810433990542923,0.001033437125485398,-0.0022572601801462006,0.029761085342426583,9.863687148080317,-0.2896792200158534
1560000004923989504,-0.0029810433990542923,-0.0021561817266047,-0.0022572601801462006,-0.019178522643304344,9.822835984866071,-0.2606799140440046
1560000004934012928,-0.005102432150981467,-0.007472213069296962,-0.007544837521026249,-0.0565010396237793,9.782938154152403,-0.21787529399898917
1560000004944036096,-0.006163126353076531,-0.01172503805050129,-0.001199744758196175,-0.02013004488227594,9.770771904874634,-0.15637947568217636
1560000004954059008,-0.005102432150981467,-0.01810427528993408,-0.0022572601801462006,-0.10093027239666603,9.766403457375873,-0.1342986151328831
1560000004963975936,-0.0029810433990542923,-0.008535419430784896,0.0019728016232188617,-0.2346895568939782,9.765897219221005,-0.13173977179116966
1560000004973999104,-0.008284515220916056,-0.014914657134965092,0.0019728016232188617,-0.11343305764709194,9.753728979066247,-0.0702338975283722
1560000004984022016,-0.010405903625106183,-0.024483513458861683,0.0009152860857038758,-0.03511512408797618,9.746946719234984,-0.04684021069267325
1560000004994045184,-0.006163126353076531,-0.01704106985794096,0.0009152860857038758,-0.010865413269774811,9.746946719234984,-0.07144094908344456
1560000005004068096,-0.005102432150981467,-0.02342030709737375,-0.00014222933624614964,-0.0070705737685035075,9.767469532444453,-0.11678475938886373
1560000005014091264,-0.0029810433990542923,-0.027673132543325485,-0.00014222933624614964,-0.0070705737685035075,9.788830714311114,-0.15997355370136634
1560000005024114688,-0.005102432150981467,-0.025546719820349617,-0.00014222933624614964,-0.0070705737685035075,9.800997859735254,-0.1845724637492757
1560000005034137600,-0.0019203490810468793,-0.035115573355761764,-0.0022572601801462006,0.03202625591649685,9.797470681295524,-0.2012390626494607
1560000005044160256,-0.005102432150981467,-0.03192595798927722,0.0009152860857038758,0.08931753211479528,9.787531264266963,-0.21241269538610982
1560000005054183424,-0.006163126353076531,-0.04043160702219106,0.0030303169296039267,0.07719530924222821,9.824025669596068,-0.20011499743355615
1560000005064206592,-0.007223820786996293,-0.038305194299215195,-0.00014222933624614964,0.027194329020981338,9.822509564486767,-0.18781697291737903
1560000005074229760,-0.004041737717061705,-0.03617878157623933,0.0019728016232188617,-0.06978922925997896,9.773847462550723,-0.17551854335093087
1560000005084252928,-0.007223820786996293,-0.0446844324681428,-0.00014222933624614964,-0.02300430409404599,9.766403457375873,-0.12154319602731736
1560000005094275840,-0.004041737717061705,-0.0446844324681428,-0.001199744758196175,0.03471308034612132,9.76338651395546,-0.06004120770590135
1560000005104298752,-0.005102432150981467,-0.05319008336004627,-0.0022572601801462006,0.0468375392952661,9.75121946824837,0.001458627875425042
1560000005114321920,-0.0008596547630394663,-0.048937257914094534,0.0019728016232188617,-0.011830936273811474,9.723266877014304,0.007096476192666491
1560000005124345088,0.0012617339888877088,-0.054253287862544575,-0.004372291139611212,-0.09981299122979657,9.689781909551586,-0.01871801184308495
1560000005134368000,0.006565205463012425,-0.05637970058552044,0.0030303169296039267,-0.014951877192160137,9.71411310551508,-0.06791202805954566
1560000005144391168,0.006565205463012425,-0.05744290508801875,0.0019728016232188617,0.03716440967669214,9.743921327164843,-0.139253751158964
1560000005154414080,0.006565205463012425,-0.05637970058552044,0.0019728016232188617,0.049287534030844134,9.780417839730093,-0.23764266061058295
1560000005164437248,0.007625899896932187,-0.06169573425194974,-0.003314775602096226,-0.021104433221963773,9.816911635689767,-0.2837050738547089
1560000005174460160,0.005504511492742059,-0.06063252603147218,-0.001199744758196175,-0.07548206462780091,9.841171864581598,-0.3205977173934681
1560000005184483328,0.003383122624902535,-0.06807496498491883,0.0009152860857038758,-0.039110521815384006,9.829004827597956,-0.3574957643881882
1560000005194506496,0.005504511492742059,-0.06169573425194974,0.004087832467118913,-0.04227363722385478,9.840643071757091,-0.32220015332382873
1560000005204529408,0.0012617339888877088,-0.06169573425194974,0.0009152860857038758,-0.06652215405992007,9.859816580082931,-0.25166226171002226
1560000005214552320,0.0012617339888877088,-0.06913817320539639,-0.00014222933624614964,-0.09077056903991036,9.786815827005274,-0.239362556401915
1560000005224575744,-0.0029810433990542923,-0.06913817320539639,0.0030303169296039267,-0.12052319852474218,9.741424517915506,-0.2158966871899359
1560000005234598656,-0.0008596547630394663,-0.06488534775944466,0.005145348004633898,-0.15689657655314201,9.729258078983088,-0.17899677841316403
1560000005244621568,0.00020103955496794668,-0.07445420687182569,0.004087832467118913,-0.027457095750778093,9.74828978337952,-0.13158405480004676
1560000005254644992,0.00020103955496794668,-0.06807496498491883,0.006202863542148884,0.07127896119627303,9.750854484368613,-0.09181621931722425
1560000005264667904,0.003383122624902535,-0.05956932152897387,0.006202863542148884,-0.0014554577526770807,9.69003017756437,-0.07951833727150004
1560000005274690816,0.004443817058822297,-0.06701176420039978,0.010432925229948986,0.02922868557815235,9.717020481794714,-0.09950244084946738
1560000005284713472,0.004443817058822297,-0.07232779786682908,0.006202863542148884,0.10995078650359329,9.79070394244883,-0.14059437044679193
1560000005294736896,0.007625899896932187,-0.06488534775944466,0.007260378617404029,0.12207510204699616,9.87587163996918,-0.2512927598872105
1560000005314782976,0.007625899896932187,-0.06594855597992222,0.0019728016232188617,0.07562689243788559,9.833374347537273,-0.5264843890873899
1560000005324806144,0.0012617339888877088,-0.06807496498491883,0.004087832467118913,0.09130391823073929,9.856112841665889,-0.4628685528223272
1560000005334829312,-0.004041737717061705,-0.06701176420039978,0.004087832467118913,0.10296996251089124,9.861047072436287,-0.342131892633015
1560000005344852224,-0.005102432150981467,-0.06594855597992222,0.0030303169296039267,0.07872140649561721,9.775879019378234,-0.15763511713626774
1560000005354875648,-0.006163126353076531,-0.07020138142587395,0.004087832467118913,0.04646663131344332,9.698743724012207,-0.02998667799232617
1560000005364898304,-0.0008596547630394663,-0.07020138142587395,0.0030303169296039267,0.01231806054543405,9.633180034973908,0.05938911449433579
1560000005374921216,0.003383122624902535,-0.07551741509230325,0.006202863542148884,0.01231806054543405,9.68184647980169,0.010191001100169482
1560000005384944640,0.0023224281909827726,-0.07870703231777743,-0.001199744758196175,0.017917607332500585,9.730510793069232,-0.06740825772368639
1560000005394967552,0.010807983198691473,-0.0818966495432516,-0.001199744758196175,0.030039722136635194,9.779168959725268,-0.17808656218432073
1560000005404990720,0.008686594330851949,-0.08083344132277404,0.0009152860857038758,0.0003376119205773659,9.817339463208988,-0.2887760309161002
1560000005415013888,0.008686594330851949,-0.08508627420468429,-0.00014222933624614964,-0.02007641133541347,9.863445909918703,-0.40270618196282554
1560000005425036800,0.009747288764771711,-0.0872126832096809,0.0019728016232188617,0.004172001282695067,9.936446056234333,-0.5257032733810403
1560000005435059712,0.0012617339888877088,-0.09252870944015168,-0.0022572601801462006,-0.0037834765132560393,9.936733131619041,-0.5670231573510556
1560000005445082624,-0.0019203490810468793,-0.0893390922146775,-0.00014222933624614964,-0.024882100065580864,9.900226647342322,-0.5582234801356393
1560000005455106048,-0.007223820786996293,-0.0978447505425395,0.0019728016232188617,-0.0005505929362063233,9.863601191236542,-0.42246302882800024
1560000005465074176,-0.009345209654835818,-0.0978447505425395,0.0009152860857038758,-0.03284729077234457,9.815902913556565,-0.2704773846783648
1560000005475097088,-0.011466598059025945,-0.0946551258811068,-0.0022572601801462006,-0.1298510390812959,9.755062617861483,-0.09826349649188476
1560000005485120000,-0.008284515220916056,-0.09997115211157759,0.0009152860857038758,-0.05873332196759036,9.67313893505574,-0.04331278720721347
1560000005495142912,-0.0019203490810468793,-0.10103436033205515,0.0019728016232188617,-0.003894163791881927,9.627020498257433,-0.01299344619581021
1560000005505166080,-0.0008596547630394663,-0.10528718577800689,-0.001199744758196175,-0.0645043826572233,9.687842995918242,-0.0006959311331295737
1560000005515189248,0.0012617339888877088,-0.10847681043943957,0.0009152860857038758,-0.10082235438850001,9.708034213267297,-0.12806710491675857
1560000005525212160,0.005504511492742059,-0.11379283666991036,-0.00014222933624614964,-0.11923787043617548,9.71555662558792,-0.3223067715816785
1560000005535235328,0.006565205463012425,-0.11485604489038792,0.0019728016232188617,-0.05861450106684657,9.825061381949187,-0.4822091895818399
1560000005545258240,0.003383122624902535,-0.1180456621158621,0.0019728016232188617,-0.05492525486049163,9.894570014025955,-0.5554719195915286
1560000005555281408,0.0023224281909827726,-0.12123528677729478,0.0009152860857038758,-0.11554898575017233,9.91890407749666,-0.53087141121207
1560000005565304832,0.0012617339888877088,-0.125488104787288,0.0030303169296039267,-0.08118245110234312,9.816136867251075,-0.4098990687540758
1560000005575327488,-0.0029810433990542923,-0.12867772201276217,0.006202863542148884,-0.029390422947432392,9.740703135166799,-0.2745918596889144
1560000005585350400,-0.0008596547630394663,-0.12974093023323974,-0.00014222933624614964,0.03124142986307049,9.789378992253129,-0.13927088017272518
1560000005595373568,0.0012617339888877088,-0.1276145137922846,0.005145348004633898,0.0021748942928399295,9.731679496479224,-0.11150288308516351
1560000005605396736,0.00020103955496794668,-0.12442489656681044,0.0019728016232188617,-0.06346040036560015,9.637336491131704,-0.13970398542547832
1560000005615419648,0.00020103955496794668,-0.1329305400227554,0.004087832467118913,-0.039210763392982594,9.7346751458771,-0.21350598663704384
1560000005625443072,0.003383122624902535,-0.1382465811251432,0.005145348004633898,0.019535696459616725,9.797399023762345,-0.2931425290123873
1560000005635465984,0.010807983198691473,-0.1382465811251432,0.0030303169296039267,0.11652992524450459,9.821732146441857,-0.3792410274389836
1560000005645488896,0.006565205463012425,-0.13186734667419486,0.005145348004633898,0.07560832499899041,9.803482088603756,-0.3469520071829397
1560000005655511808,0.004443817058822297,-0.12974093023323974,0.0030303169296039267,0.028364186415139894,9.795922947883433,-0.3113222996808087
1560000005665535232,0.003383122624902535,-0.13612016468418808,0.004087832467118913,0.01624077368980916,9.83242093530878,-0.3113222996808087
1560000005675558144,0.0023224281909827726,-0.13930978934562077,0.0019728016232188617,0.020518671261519586,9.844230409939428,-0.3612382109817557
1560000005685581312,-0.0019203490810468793,-0.14249941400705346,0.0019728016232188617,0.028899570326755122,9.843291367658365,-0.4350335992332016
1560000005695604224,0.0023224281909827726,-0.14249941400705346,0.0030303169296039267,-0.007467639147719932,9.831125778291371,-0.5088208939032619
1560000005705627392,-0.0008596547630394663,-0.1488786484580018,0.0019728016232188617,-0.06700417386304178,9.848022919506347,-0.5297259224980886
1560000005715650560,-0.007223820786996293,-0.14356262222753102,0.005145348004633898,-0.15186478337362153,9.896685628141249,-0.4928306290071002
1560000005725673984,-0.012527292492945707,-0.1488786484580018,0.0019728016232188617,-0.05567338565882379,9.817096320178704,-0.391102758848231
1560000005735696640,-0.012527292492945707,-0.1510050500270399,0.007260378617404029,0.024935613589210127,9.746946719234984,-0.25980405768065035
1560000005745719552,-0.0157093748674062,-0.15525788290895015,0.0030303169296039267,0.0006868414628737121,9.746946719234984,-0.07530564268050915
1560000005755742720,-0.006163126353076531,-0.15738429934990528,0.005145348004633898,-0.0235614408714197,9.705575155071953,-0.02464761855892926
1560000005765765888,-0.008284515220916056,-0.1541946746884726,0.0030303169296039267,-0.040944677781174596,9.656552496753438,-0.047890073454092776
1560000005775789056,-0.0029810433990542923,-0.16376353380085362,0.0019728016232188617,0.019663731277962754,9.74170170348271,-0.19545587223185332
1560000005785811968,0.004443817058822297,-0.15738429934990528,0.005145348004633898,0.021917797688628567,9.803428208088098,-0.3075035751172034
1560000005795835136,0.0012617339888877088,-0.1616371173598985,0.0019728016232188617,-0.038695118376149876,9.839923698946375,-0.38129197677492843
1560000005805858048,0.00020103955496794668,-0.16376353380085362,0.0009152860857038758,-0.08862044641595945,9.833499164356256,-0.4225433059625056
1560000005815880704,-0.006163126353076531,-0.16801636668276387,0.0030303169296039267,-0.09597521957691993,9.835094186507748,-0.4107491091894865
1560000005825904384,-0.008284515220916056,-0.170142783123719,0.005145348004633898,0.001037469525926843,9.871602336713831,-0.2754257375839003
1560000005835927296,-0.006163126353076531,-0.17120597647227953,0.0009152860857038758,0.02341598555425537,9.750027403400896,-0.08966280298655246
1560000005845950464,-0.007223820786996293,-0.17333237804131763,-0.001199744758196175,0.0041098635137081455,9.576986107903991,0.09861032770212427
1560000005855973376,0.0012617339888877088,-0.17120597647227953,-0.001199744758196175,-0.09287512895783682,9.637814033317994,0.06171449504326862
1560000005865996288,0.004443817058822297,-0.17333237804131763,-0.00014222933624614964,-0.08395666350158172,9.692736849218223,-0.07067837064789244
1560000005876019456,0.008686594330851949,-0.18183804380513813,0.004087832467118913,0.03727638080229942,9.741399791981816,-0.30435550732158867
1560000005886042880,0.008686594330851949,-0.18183804380513813,0.004087832467118913,0.04035459365967212,9.833174445470554,-0.4508499848606399
1560000005896065536,0.008686594330851949,-0.17333237804131763,0.005145348004633898,0.02475837187415754,9.89911425887567,-0.5579272286387497
1560000005906088704,0.0023224281909827726,-0.17333237804131763,0.006202863542148884,0.000511042440118032,9.886948009597901,-0.5948247172328729
1560000005916111616,0.0023224281909827726,-0.1765220027027503,0.0019728016232188617,0.009594395839160674,9.891505639007418,-0.5640962583239596
1560000005926135040,-0.0019203490810468793,-0.1743955862617952,0.0030303169296039267,0.0327740537305249,9.896173988131352,-0.4950215994095034
1560000005936157952,-0.005102432150981467,-0.17333237804131763,0.0009152860857038758,0.04489797164266411,9.823174971513092,-0.34742856031354086
1560000005946180864,-0.012527292492945707,-0.1743955862617952,-0.001199744758196175,0.039287358734648184,9.738462693658485,-0.1761524795642106
1560000005956204288,-0.006163126353076531,-0.17864841914370544,0.0030303169296039267,0.01513071425764223,9.641497322581905,0.01989812889870507
1560000005966288128,-0.007223820786996293,-0.18077483558466056,0.006202863542148884,-0.00925178281145797,9.673498474129243,0.04272507707848128
1560000005976311040,0.00020103955496794668,-0.179711627364183,0.0009152860857038758,-0.029977891006627594,9.690379195689873,0.007028931318795152
1560000005986334208,0.004443817058822297,-0.17758521092322788,0.008317894154919014,-0.042100220763654536,9.629555251252242,-0.11594916127179442
1560000005996357120,0.009747288764771711,-0.17545879448227275,0.0019728016232188617,0.02115813453464159,9.728422997123745,-0.27292579105783815
1560000006006380288,0.006565205463012425,-0.18183804380513813,0.007260378617404029,0.10814992336995116,9.883143886221205,-0.4428669191660552
1560000006016403712,0.005504511492742059,-0.1765220027027503,0.005145348004633898,0.0960272330385624,9.883143886221205,-0.5904450380098719
1560000006026426368,0.006565205463012425,-0.1765220027027503,0.0019728016232188617,0.1256768593440326,9.889132222094126,-0.629047139612145
1560000006036449280,0.00020103955496794668,-0.17864841914370544,0.005145348004633898,0.1984117116410007,9.901297277267687,-0.5552593861552516
1560000006046472192,-0.0019203490810468793,-0.17545879448227275,0.004087832467118913,0.14125475514022745,9.815696889732962,-0.3716476056405308
1560000006056495616,-0.006163126353076531,-0.1743955862617952,0.0030303169296039267,0.07207065852248305,9.736228211861048,-0.19291390355702853
1560000006066518784,-0.009345209654835818,-0.16907957490324144,0.0009152860857038758,0.011452333166052,9.699730070762694,-0.05762311044793378
1560000006076541696,-0.0029810433990542923,-0.1722691846927571,-0.001199744758196175,-0.015488118038305682,9.713918383238328,-0.07605857213876537
1560000006086565120,0.00020103955496794668,-0.170142783123719,0.004087832467118913,-0.02645921185948552,9.746946719234984,-0.1679811788945188
1560000006096587776,0.003383122624902535,-0.16907957490324144,0.004087832467118913,-0.02645921185948552,9.746946719234984,-0.31555226029277744
1560000006106610688,0.00020103955496794668,-0.16907957490324144,0.0009152860857038758,-0.014444913119757413,9.789144464207617,-0.4448464492947973
1560000006116633856,0.004443817058822297,-0.16907957490324144,0.0019728016232188617,0.009801696213360044,9.874305675798489,-0.5555356031573729
1560000006126657024,0.004443817058822297,-0.1669531584622863,0.006202863542148884,-0.020280699884845155,9.86133504385328,-0.5559996135000312
1560000006136679936,-0.0008596547630394663,-0.16057390913942093,0.008317894154919014,-0.01703267707337914,9.84061568191506,-0.5290836874525697
1560000006146703360,-0.005102432150981467,-0.16801636668276387,0.0019728016232188617,0.07996847108132077,9.828447342128007,-0.4675803671918268
1560000006156726272,-0.009345209654835818,-0.16801636668276387,0.005145348004633898,0.10926123966921075,9.790806021969544,-0.3459928168239171
1560000006166749440,-0.010405903625106183,-0.1722691846927571,0.004087832467118913,0.10806403295984437,9.742141131249598,-0.20204497007152028
1560000006176772608,-0.008284515220916056,-0.170142783123719,-0.001199744758196175,0.0959391064212362,9.69347167355131,-0.0913409853006192
1560000006186795520,-0.004041737717061705,-0.1722691846927571,-0.001199744758196175,0.06564437962047433,9.675199068628057,-0.035952126697595066
1560000006196818688,-0.005102432150981467,-0.17545879448227275,-0.005429806445996277,0.01715332463875835,9.687364413177086,-0.035952126697595066
1560000006206841344,0.004443817058822297,-0.18183804380513813,0.0009152860857038758,0.023229934717966996,9.677627273359542,-0.11344093522629929
1560000006216864768,0.007625899896932187,-0.18396444537417622,-0.001199744758196175,0.013482723157364283,9.694723916549549,-0.1847298792771114
1560000006226887936,0.007625899896932187,-0.18077483558466056,-0.005429806445996277,-0.04712929027189698,9.779878795415993,-0.2216235314035716
1560000006236910848,0.005504511492742059,-0.19140690291751916,-0.001199744758196175,-0.056735678268750936,9.839440125880694,-0.31888367817211055
1560000006246934272,0.006565205463012425,-0.18502765359465378,-0.003314775602096226,-0.05572844928546249,9.886862065061663,-0.43936170626128046
1560000006256956928,0.0023224281909827726,-0.19247011113799672,-0.0022572601801462006,-0.15270969472721477,9.923357166689964,-0.537746802463738
1560000006266979840,0.0023224281909827726,-0.19140690291751916,-0.00014222933624614964,-0.17049727759948233,9.904833153541881,-0.5619719937272281
1560000006277003264,-0.004041737717061705,-0.1903436946970416,0.0009152860857038758,-0.10987931357023081,9.831836092990871,-0.5127756610712961
1560000006287026176,-0.009345209654835818,-0.18609086181513135,0.007260378617404029,-0.13686200670189422,9.813785921640687,-0.3191807201595743
1560000006297049344,-0.008284515220916056,-0.19459652757895185,0.0030303169296039267,-0.16586359276734297,9.775742967424161,-0.12879015843101962
1560000006307072256,-0.0019203490810468793,-0.18821727825608647,0.004087832467118913,-0.1779873244400676,9.678412393013355,0.018800670944148584
1560000006317095424,-0.0019203490810468793,-0.18928048647656404,0.007260378617404029,-0.06197216684611376,9.63251925381538,-0.0416005096817888
1560000006327118336,0.006565205463012425,-0.20097574715798316,0.004087832467118913,0.084766508242347,9.624842389523366,-0.190472245937712
1560000006337141504,0.007625899896932187,-0.19247011113799672,0.0019728016232188617,0.03627761675207873,9.758653389075114,-0.35034232890362726
1560000006347164672,0.006565205463012425,-0.2031021635989383,0.005145348004633898,0.06138037821651747,9.800155684090244,-0.42933807660702783
1560000006357187584,0.003383122624902535,-0.20416537181941585,0.0009152860857038758,0.15836306371868872,9.751494622622477,-0.42933807660702783
1560000006367210752,0.0012617339888877088,-0.20629178826037098,-0.001199744758196175,0.05753581521850604,9.713864072304958,-0.25096676245352556
1560000006377233664,0.0012617339888877088,-0.20416537181941585,-0.00014222933624614964,-0.02645921185948552,9.703521304600194,-0.11085249821970708
1560000006387256832,0.00020103955496794668,-0.215860647372752,-0.001199744758196175,-0.02645921185948552,9.75218424736379,-0.09855370161572026
1560000006397280000,0.010807983198691473,-0.21267102271131932,0.0019728016232188617,-0.08652104900872362,9.740572686131584,-0.24293594787863812
1560000006407303424,0.007625899896932187,-0.2137342309317969,-0.0022572601801462006,-0.15034852083932274,9.717268471804642,-0.42933807660702783
1560000006417326336,0.010807983198691473,-0.2179870489417901,-0.001199744758196175,-0.041228389116054226,9.802437184979599,-0.42933807660702783
1560000006427349504,0.009747288764771711,-0.21160781449084176,-0.00014222933624614964,-0.03090094817533176,9.856622071958247,-0.46065567533628854
1560000006437371904,0.009747288764771711,-0.21479743915227445,-0.001199744758196175,-0.11575044703554249,9.880949939335657,-0.5221397916160351
1560000006447395328,0.009747288764771711,-0.2233030751722609,0.0019728016232188617,-0.05687687444356146,9.894270416546814,-0.6289173472823667
1560000006457418240,0.004443817058822297,-0.215860647372752,0.005145348004633898,0.019984289187388676,9.9181146553018,-0.6890245508350028
1560000006467357184,-0.0008596547630394663,-0.22223986695178333,0.0019728016232188617,0.10413859989043878,9.96637113998942,-0.6402402538141053
1560000006477380352,-0.005102432150981467,-0.22436628339273845,-0.00014222933624614964,0.051061309027317786,9.876612242268601,-0.503590621476743
1560000006487403520,-0.007223820786996293,-0.23074553271560383,-0.007544837521026249,-0.053974602125569246,9.738791486372808,-0.3355461675205771
1560000006497426432,-0.007223820786996293,-0.23287194915655895,-0.00014222933624614964,-0.12671226876985808,9.6657989401676,-0.20026343031053767
1560000006507449344,0.0023224281909827726,-0.22755590805417114,-0.001199744758196175,-0.17460435949028547,9.661378097846718,-0.15950771041143222
1560000006517472512,0.008686594330851949,-0.23287194915655895,0.0009152860857038758,-0.19885385184615773,9.72221477349624,-0.20870874873595424
1560000006527495680,0.005504511492742059,-0.23712476716655218,0.0030303169296039267,-0.22310137641307423,9.749712613029487,-0.358998210102212
1560000006537518592,0.008686594330851949,-0.2339351425051195,0.006202863542148884,-0.23212064144334132,9.800784699179465,-0.5111574905690001
1560000006547541760,0.006565205463012425,-0.2360615589460746,0.004087832467118913,-0.20787380890749838,9.9102780547332,-0.6464454890146334
1560000006557564928,0.003383122624902535,-0.23818797538702974,0.0030303169296039267,-0.12296197698325138,9.898030833834945,-0.6938305295749222
1560000006567587840,-0.0008596547630394663,-0.23818797538702974,0.005145348004633898,-0.01804584676364372,9.842823186970858,-0.6904830132184007
1560000006577610752,0.00020103955496794668,-0.2392511836075073,0.007260378617404029,0.05469982482502217,9.830655715482633,-0.5674851692767976
1560000006587634432,-0.004041737717061705,-0.24350400161750052,0.004087832467118913,0.03351218564813713,9.799635956775155,-0.4444861029356
1560000006597657088,-0.006163126353076531,-0.24669361140701618,0.006202863542148884,-0.07559074876191013,9.750976052829248,-0.32150580984425536
1560000006607680000,-0.005102432150981467,-0.2530728458579645,0.006202863542148884,-0.06238486092868671,9.724628895084932,-0.288760089777168
1560000006617703424,-0.0008596547630394663,-0.252009652509404,0.006202863542148884,-0.07669202745125603,9.727379538540122,-0.2954516975087782
1560000006627726336,-0.004041737717061705,-0.2530728458579645,0.007260378617404029,-0.17367471531504208,9.78820662374164,-0.36924163630337237
1560000006637749504,0.0012617339888877088,-0.24563040318653862,0.008317894154919014,-0.20967043991148657,9.752853300117318,-0.46071651453019385
1560000006647772672,0.0023224281909827726,-0.24350400161750052,0.012547955380459275,-0.2174479509952748,9.70602423608192,-0.548823660560308
1560000006657795584,0.0023224281909827726,-0.24669361140701618,0.013605471842493944,-0.19320096449442759,9.852015842485127,-0.5611226341024487
1560000006667818496,-0.0019203490810468793,-0.252009652509404,0.015720501993004232,-0.1437259777333953,9.858764961303228,-0.5414297550874528
1560000006677841664,0.00020103955496794668,-0.2488200278479713,0.013605471842493944,-0.07098290627943049,9.737101872394527,-0.4922323782624936
1560000006687864832,-0.0029810433990542923,-0.2488200278479713,0.013605471842493944,0.012932086579219237,9.772315599257356,-0.43170305046712354
1560000006697888000,-0.0019203490810468793,-0.252009652509404,0.012547955380459275,0.08219207304952428,9.785735856936055,-0.3939586928835511
1560000006707910656,0.0023224281909827726,-0.2530728458579645,0.012547955380459275,0.11856220381977683,9.724906057532138,-0.4062575568005884
1560000006717933824,0.0012617339888877088,-0.25626248539131424,0.013605471842493944,0.14617235133510384,9.73440980839482,-0.43633296019539736
1560000006727956992,0.003383122624902535,-0.2573256787398748,0.011490440767463972,0.15994468871840545,9.773912197221257,-0.4732311186569855
1560000006737980160,0.00020103955496794668,-0.2605153182732245,0.005145348004633898,0.09932365953501587,9.834746158119305,-0.5101302729184494
1560000006748003328,-0.0019203490810468793,-0.26902095429321093,0.010432925229948986,0.032349197909242414,9.838174668761805,-0.5341323764000725
1560000006758026240,-0.0019203490810468793,-0.2626417347141796,0.006202863542148884,-0.04038889865647814,9.789512276834815,-0.5464308744645971
1560000006768049152,-0.005102432150981467,-0.26795773120081634,0.0030303169296039267,-0.05706182551773541,9.830873672193203,-0.5132249396328211
1560000006778072576,-0.0029810433990542923,-0.26902095429321093,0.009375409692434,-0.06918637269603417,9.828013475417224,-0.47632477290236885
1560000006788095488,0.00020103955496794668,-0.2637048983189061,0.007260378617404029,-0.08131120063034794,9.718507412979562,-0.4394237710984898
1560000006798118656,-0.004041737717061705,-0.2775265903131974,0.008317894154919014,-0.005322136658187926,9.66205029577125,-0.3488871347760492
1560000006808141824,-0.008284515220916056,-0.2775265903131974,0.0009152860857038758,0.09916329996645679,9.645745985495145,-0.24131835688590633
1560000006818164736,-0.005102432150981467,-0.2817794231951076,-0.0022572601801462006,0.1719089715551227,9.767413419189644,-0.15521986444952424
1560000006828187904,-0.0019203490810468793,-0.2945379218408384,-0.001199744758196175,0.1293050960590726,9.747603910063148,-0.11462931706265356
1560000006838211328,-0.0019203490810468793,-0.3051699445579459,-0.007544837521026249,-0.0161845122325093,9.601604487888498,-0.11462931706265356
1560000006848233984,0.005504511492742059,-0.30942277743985613,-0.004372291139611212,-0.09406650099163764,9.726982175977525,-0.1832152691063331
1560000006858256896,0.010807983198691473,-0.31261241697320585,-0.003314775602096226,-0.19484228224725544,9.832808915040188,-0.3220069694235094
1560000006868279808,0.010807983198691473,-0.3147388036703269,-0.00014222933624614964,-0.35247337590669503,9.85714564014343,-0.5926288075809775
1560000006878303488,0.004443817058822297,-0.31686522011128204,-0.001199744758196175,-0.38597740039578027,9.899274860917233,-0.7103408550141019
1560000006888326144,0.0023224281909827726,-0.3221812760855869,0.0009152860857038758,-0.3754546672808061,9.938300086156657,-0.7458508875942093
1560000006898349312,-0.0029810433990542923,-0.32005485964463176,-0.001199744758196175,-0.3754546672808061,9.91396638465456,-0.6105500466255841
1560000006908372992,-0.005102432150981467,-0.32749730231605767,0.0030303169296039267,-0.31082972185507474,9.818293432797661,-0.4555692718276739
1560000006918395648,-0.008284515220916056,-0.32643410896749714,0.004087832467118913,-0.1895779106994771,9.6601130335217,-0.28335947647610793
1560000006928418304,-0.007223820786996293,-0.32537088587510254,0.004087832467118913,-0.12495370532484244,9.74056552751119,-0.19157591842922583
1560000006938441984,-0.0029810433990542923,-0.34344538100747,0.005145348004633898,-0.05620617197035105,9.789021460201738,-0.1754848092404422
1560000006948464640,-0.0029810433990542923,-0.3423821876589095,0.008317894154919014,0.02867312848044365,9.740348642922635,-0.2984961931049942
1560000006958488064,-0.0008596547630394663,-0.3423821876589095,0.0009152860857038758,0.06903455472240118,9.77249563535727,-0.41288665924686924
1560000006968425984,0.00020103955496794668,-0.3498246303303354,0.0019728016232188617,0.07661135644593882,9.823109388784905,-0.5147418953942517
1560000006978448896,-0.0008596547630394663,-0.35195101702745646,0.0030303169296039267,-0.020377099173321395,9.810944461405619,-0.5639380828000766
1560000006988472320,-0.004041737717061705,-0.35301424011985105,-0.001199744758196175,-0.05220228382256682,9.811857241728813,-0.5668581421234107
1560000006998494976,-0.0029810433990542923,-0.35939348944271643,0.0019728016232188617,-0.0279537289882407,9.8240228929201,-0.5299588061927466
1560000007008518144,-0.008284515220916056,-0.3625830992322321,-0.00014222933624614964,-0.1288519398705702,9.824772701484449,-0.4122679915578568
1560000007018541312,-0.008284515220916056,-0.3710887649960526,-0.001199744758196175,-0.19684463925660803,9.787632456372021,-0.30596064967057934
1560000007028564480,-0.008284515220916056,-0.3721519583446131,-0.00014222933624614964,-0.18472115072966688,9.678139054932581,-0.2321667748747318
1560000007038587648,-0.007223820786996293,-0.3636462925807926,0.004087832467118913,-0.15465720628030638,9.694672901695567,-0.18567516395071068
1560000007048610560,-0.005102432150981467,-0.3732151814370077,0.0009152860857038758,-0.12340238342917331,9.741814670288376,-0.17299131873364432
1560000007058633472,0.00020103955496794668,-0.37427837478556825,0.0019728016232188617,-0.12340238342917331,9.70532173969527,-0.3082628048024614
1560000007068656640,0.004443817058822297,-0.3732151814370077,-0.00014222933624614964,-0.10372135816364021,9.767577443033256,-0.44353857535494084
1560000007078679552,0.003383122624902535,-0.3721519583446131,0.0019728016232188617,-0.06735501729344787,9.913552549658723,-0.5788120324985508
1560000007088702976,-0.0008596547630394663,-0.3806576241084336,-0.0022572601801462006,-0.042402778515011605,9.887686103318973,-0.6330209483132776
1560000007098726144,-0.0008596547630394663,-0.3774679845750839,0.004087832467118913,-0.02645921185948552,9.876183991524103,-0.6737920732000677
1560000007108748800,-0.007223820786996293,-0.38172081745699415,0.0030303169296039267,-0.02645921185948552,9.912679635951564,-0.6983887034929286
1560000007118772224,-0.010405903625106183,-0.38172081745699415,0.004087832467118913,-0.06249782642275342,9.894932943834755,-0.6590078942392583
1560000007128795392,-0.014648681360785232,-0.3902264534769806,0.0030303169296039267,-0.1057592637672451,9.854928953147803,-0.5833416875830878
1560000007138818304,-0.01358798692686547,-0.3838472338979493,0.0019728016232188617,-0.11788407752955139,9.794091914686478,-0.42343735282279227
1560000007148841728,-0.017830763735245725,-0.39447928635889085,0.007260378617404029,-0.11018723111168531,9.733249846660119,-0.19648665088555575
1560000007158864384,-0.014648681360785232,-0.3923528699179357,-0.00014222933624614964,-0.0859357998093072,9.672408889750763,0.08644206055895037
1560000007168887552,-0.008284515220916056,-0.39660570279984597,0.0030303169296039267,-0.10756339697039292,9.49648052366813,0.24135490189912986
1560000007178910464,0.0023224281909827726,-0.3987321192408011,0.0030303169296039267,-0.13601543687276788,9.444777083149077,0.2524603124465157
1560000007188933632,0.010807983198691473,-0.3955424797074514,0.0030303169296039267,-0.17238643397604758,9.639435858123475,0.006477060742944629
1560000007198956800,0.02035423217667054,-0.3923528699179357,0.005145348004633898,-0.1271908319509395,9.734050740542314,-0.3038621534382457
1560000007208979968,0.018232843308831015,-0.40085850593792216,0.006202863542148884,-0.07602572969949488,9.809318922815338,-0.6085833099371014
1560000007219002880,0.013990065573151966,-0.389163230384586,0.006202863542148884,-0.14877139892626493,9.96748755744322,-0.7561807495031845
1560000007229026304,0.015050760007071728,-0.3912896468255411,0.009375409692434,-0.14161427588613126,10.018749642785526,-0.8159686470404568
1560000007239049472,0.004443817058822297,-0.38810006677985953,0.012547955380459275,-0.0688636297341393,9.982246551414455,-0.803667988562436
1560000007249072384,-0.0008596547630394663,-0.3849104569903439,0.010432925229948986,-0.053715844082588275,9.899499459491942,-0.6160562413468409
1560000007259095296,-0.005102432150981467,-0.3859736503389044,0.010432925229948986,-0.037333609369105916,9.831414195773464,-0.41924609145554553
1560000007269118208,-0.010405903625106183,-0.389163230384586,0.008317894154919014,-0.013083032454912574,9.794910561387482,-0.22243315047123607
1560000007279141376,-0.008284515220916056,-0.389163230384586,0.006202863542148884,-0.016190719130737805,9.703491500264763,-0.08111557399420802
1560000007289164544,-0.007223820786996293,-0.3902264534769806,0.007260378617404029,-0.03760666068459679,9.620073570089293,0.019286160949504527
1560000007299187456,-0.0008596547630394663,-0.39341606326649625,0.010432925229948986,-0.11035232991136683,9.680907286936543,-0.005313405921947546
1560000007309210880,0.005504511492742059,-0.39447928635889085,0.006202863542148884,-0.09576847906659446,9.701293111551074,-0.11168927698195706
1560000007319233792,0.008686594330851949,-0.389163230384586,0.012547955380459275,-0.01090787191765058,9.689127586067062,-0.28386730528716286
1560000007329256448,0.010807983198691473,-0.38810006677985953,0.009375409692434,-0.03022169208998052,9.827970931634663,-0.4912860668821789
1560000007339280128,0.010807983198691473,-0.39660570279984597,0.010432925229948986,-0.028600300936072433,9.92638342396054,-0.6610254916736005
1560000007349303040,0.003383122624902535,-0.3955424797074514,0.008317894154919014,0.019896090892767365,9.938550107703994,-0.7594223338461306
1560000007359325952,-0.0008596547630394663,-0.39979531258936163,0.007260378617404029,0.01336353135761981,9.904698397238684,-0.7089506848221159
1560000007369349120,-0.005102432150981467,-0.3987321192408011,0.005145348004633898,-0.00897820140091734,9.856029836382604,-0.5873262263102355
1560000007379372288,-0.008284515220916056,-0.4051113388198324,0.0030303169296039267,-0.02110377946174436,9.807357166125037,-0.3413042065123311
1560000007389395200,-0.007223820786996293,-0.4051113388198324,0.010432925229948986,-0.02645921185948552,9.704335869621202,-0.14336149927041245
1560000007399418368,-0.009345209654835818,-0.4029849223788773,0.004087832467118913,-0.02645921185948552,9.55831385689702,0.016558538560707853
1560000007409441792,0.00020103955496794668,-0.40085850593792216,0.005145348004633898,-0.10788502475975537,9.66911128162277,0.011255124161587497
1560000007419464704,0.006565205463012425,-0.40723775526078754,0.004087832467118913,-0.12287089463205034,9.751329701774939,-0.1029542959528004
1560000007429487360,0.011868676705312442,-0.41042739479413726,0.005145348004633898,-0.013758878222530191,9.763495842613315,-0.39813154497679093
1560000007439510784,0.010807983198691473,-0.40192172903031675,0.008317894154919014,0.003091502266041525,9.886769568703897,-0.665239159548991
1560000007449533952,0.005504511492742059,-0.4136170045836529,0.006202863542148884,-0.01488068407986936,10.017380795128947,-0.8916358779963522
1560000007459556608,0.0012617339888877088,-0.406174561912227,0.005145348004633898,-0.06314904886510864,10.005271924349856,-0.952844686297738
1560000007469654784,-0.007223820786996293,-0.40723775526078754,0.007260378617404029,-0.03687331623372245,9.97250138110276,-0.8693514394941164
1560000007479677952,-0.017830763735245725,-0.4125538112350924,0.007260378617404029,0.048006234183963076,9.92382781364949,-0.672532695531551
1560000007489701376,-0.024194930338764298,-0.40830097835318213,0.008317894154919014,0.004360257759335365,9.793084677520568,-0.34534142315775146
1560000007499724288,-0.02525562477268406,-0.40830097835318213,0.005145348004633898,-0.02645921185948552,9.663678408705945,-0.06255364420885735
1560000007509747200,-0.01995215260308525,-0.40723775526078754,0.006202863542148884,-0.02645921185948552,9.542003128578397,0.1342546319852776
1560000007519770112,-0.01358798692686547,-0.4051113388198324,0.004087832467118913,-0.0357400997798525,9.532094777446535,0.16157969005579198
1560000007529793280,-0.0008596547630394663,-0.4051113388198324,0.006202863542148884,-0.035764948105265565,9.560475828820463,0.11038498881128839
1560000007539816448,0.0023224281909827726,-0.40936417170174266,0.004087832467118913,0.024850672484658914,9.609138047810088,-0.07409421042085326
1560000007549839616,0.011868676705312442,-0.4051113388198324,0.004087832467118913,0.03734756205311586,9.699186870111077,-0.2655421252583173
1560000007559862528,0.010807983198691473,-0.3987321192408011,0.007260378617404029,0.013102395154891366,9.820837292943716,-0.4623111476319872
1560000007569885696,0.009747288764771711,-0.40085850593792216,0.006202863542148884,0.024050570596843686,9.84832072884767,-0.5519930837150585
1560000007579908608,0.010807983198691473,-0.4029849223788773,0.004087832467118913,0.049580825148589476,9.89059229112696,-0.6018285432990269
1560000007589932032,0.004443817058822297,-0.3976688961484065,0.0030303169296039267,0.09808313148652567,9.963600689682693,-0.5895274284103467
1560000007599954944,0.00020103955496794668,-0.3976688961484065,0.005145348004633898,0.05328506551279397,9.905529552709906,-0.5677636337558472
1560000007609977600,-0.0019203490810468793,-0.3859736503389044,0.0030303169296039267,-0.013263332578200964,9.826844308414493,-0.5536362718895426
1560000007620001024,-0.006163126353076531,-0.3923528699179357,0.006202863542148884,-0.04963519247181521,9.839011453838634,-0.5905346381594173
1560000007630024192,-0.011466598059025945,-0.3923528699179357,0.008317894154919014,-0.10677589393927649,9.899810837420189,-0.6695728612330263
1560000007640047360,-0.018891458169165487,-0.39341606326649625,0.005145348004633898,-0.1795178834222832,9.99714083164234,-0.7802653461831116
1560000007650070528,-0.026316317352006235,-0.40085850593792216,0.005145348004633898,-0.07551672888042167,9.869810450404055,-0.37694671751091136
1560000007660093440,-0.024194930338764298,-0.39660570279984597,-0.00014222933624614964,-0.05226948292181241,9.69968107716831,0.009174294619832712
1560000007670116352,-0.018891458169165487,-0.4040481454712719,0.006202863542148884,-0.17351226890292223,9.4685118609706,0.3412684773355065
1560000007680139776,-0.010405903625106183,-0.40085850593792216,0.0030303169296039267,-0.10716420990851677,9.482069630263725,0.34983641357559014
1560000007690162688,-0.0019203490810468793,-0.4040481454712719,0.0030303169296039267,-0.021863560030662234,9.573588133133443,0.22730362369880966
1560000007700185856,0.008686594330851949,-0.406174561912227,0.005145348004633898,-0.10671785699629914,9.695233128455062,-0.0678367473881007
1560000007710208768,0.011868676705312442,-0.40830097835318213,0.004087832467118913,-0.08703618947293007,9.781915890603244,-0.35592204509206116
1560000007720231936,0.012929372066530997,-0.406174561912227,0.006202863542148884,0.00994880299861492,9.842744422725128,-0.6387901849219702
1560000007730255104,0.010807983198691473,-0.3987321192408011,0.008317894154919014,-0.03498839856752471,9.951043221588648,-0.741682856851137
1560000007740278016,0.005504511492742059,-0.3987321192408011,0.007260378617404029,-0.06979720945395078,9.991879839609954,-0.7614140117414001
1560000007750301696,-0.007223820786996293,-0.40085850593792216,0.005145348004633898,-0.08192127946428163,9.91888056372504,-0.650717945552001
1560000007760324352,-0.009345209654835818,-0.3955424797074514,0.008317894154919014,-0.04694717198419363,9.86478985798667,-0.46358176599744855
1560000007770347264,-0.014648681360785232,-0.3955424797074514,0.008317894154919014,-0.0006070222580106298,9.798827898210915,-0.2588674194109702
1560000007780370688,-0.016770070228624756,-0.40085850593792216,0.012547955380459275,0.03576970720017292,9.652811101099452,-0.07435089737351527
1560000007790393600,-0.014648681360785232,-0.40085850593792216,0.008317894154919014,0.06512616164748863,9.612413951694883,0.02473736987971113
1560000007800416768,-0.006163126353076531,-0.3987321192408011,0.009375409692434,0.08937313161614716,9.64891215665865,0.06163430967356373
1560000007810439680,0.00020103955496794668,-0.39979531258936163,0.009375409692434,0.006764568965270348,9.69732111413508,-0.04600558810276781
1560000007820462848,0.003383122624902535,-0.40085850593792216,0.006202863542148884,-0.03202638162862422,9.7506071776545,-0.17538932306696065
1560000007830485760,0.008686594330851949,-0.40936417170174266,0.005145348004633898,0.004343207004250033,9.811434858874376,-0.33527226575693725
1560000007840508928,0.007625899896932187,-0.40723775526078754,0.005145348004633898,-0.05394030854225708,9.834271904335951,-0.437547710802252
1560000007850532608,0.003383122624902535,-0.4125538112350924,0.0009152860857038758,-0.12780485556680557,9.844230409939428,-0.5169476859198662
1560000007860555264,0.004443817058822297,-0.4125538112350924,0.005145348004633898,-0.15205103973054002,9.844230409939428,-0.5661419713542879
1560000007870578176,0.0023224281909827726,-0.40936417170174266,0.006202863542148884,-0.16217966716522625,9.88673494952454,-0.5508847454133101
1560000007880601344,-0.0029810433990542923,-0.4136170045836529,0.006202863542148884,-0.16217966716522625,9.959731838456202,-0.4893889438682486
1560000007890624512,-0.005102432150981467,-0.41468019793221345,0.007260378617404029,-0.06682677538516556,9.817439341510248,-0.4278877468365827
1560000007900647680,-0.006163126353076531,-0.4136170045836529,0.004087832467118913,-0.011725381113615072,9.750846269232747,-0.3474998048692248
1560000007910670848,-0.010405903625106183,-0.41680661437316857,0.0019728016232188617,-0.023849047601967103,9.811676302151687,-0.23680733429492623
1560000007920693760,-0.006163126353076531,-0.4253122801369891,-0.0022572601801462006,0.011599888132061767,9.719743981392323,-0.19367079158212633
1560000007930716416,0.00020103955496794668,-0.41468019793221345,0.0030303169296039267,0.030842500834679265,9.633333569829066,-0.1804858806642769
1560000007940739584,-0.004041737717061705,-0.4274386965779442,0.005145348004633898,-0.07825912168491966,9.75498279010934,-0.21737953279073713
1560000007950763008,0.0012617339888877088,-0.4221226703474734,0.0009152860857038758,-0.08049757563423326,9.783789789957194,-0.29793393580494554
1560000007960786176,0.004443817058822297,-0.4210594472550788,0.0030303169296039267,-0.007312550895968273,9.74706813479321,-0.4093005682798927
1560000007970713088,0.003383122624902535,-0.4221226703474734,0.0030303169296039267,0.004896786220189093,9.85503068532615,-0.4218093779214968
1560000007980736000,-0.0019203490810468793,-0.4274386965779442,0.0030303169296039267,-0.015894550706449587,9.879589066845105,-0.44841875240125495
1560000007990759168,-0.0008596547630394663,-0.42637550322938367,-0.00014222933624614964,-0.08863654255123267,9.770093430080138,-0.49761541663856307
1560000008000782336,-0.004041737717061705,-0.4274386965779442,0.0019728016232188617,-0.14225466293441907,9.775728620115133,-0.4013304920717005
1560000008010805248,-0.006163126353076531,-0.43062830636745986,0.005145348004633898,-0.18386278045175264,9.791502633003953,-0.25906519795184135
1560000008020828672,-0.006163126353076531,-0.432754722808415,-0.00014222933624614964,-0.1959875670976282,9.7184984070075,-0.08686105016640469
1560000008030851584,0.00020103955496794668,-0.432754722808415,0.004087832467118913,-0.16518471524122494,9.674218327132978,-0.0017668100820961187
1560000008040874752,0.0023224281909827726,-0.43488110950553605,0.004087832467118913,-0.10456458657301769,9.649885104719086,0.02283224421895129
1560000008050897664,0.004443817058822297,-0.43488110950553605,0.0030303169296039267,-0.0920017989523001,9.709934173643497,-0.07443098224366922
1560000008060920832,0.007625899896932187,-0.4380707192950517,-0.001199744758196175,-0.08937128764763133,9.761235449094768,-0.17763238707354534
1560000008070944000,0.004443817058822297,-0.4444499686179171,0.0019728016232188617,-0.10149404548905848,9.797732089431683,-0.2883166189458001
1560000008080966656,0.009747288764771711,-0.4380707192950517,0.0030303169296039267,-0.14242536523963853,9.834227322254389,-0.3600318523609273
1560000008090990080,0.008686594330851949,-0.44019713573600683,0.0019728016232188617,-0.167539674299931,9.86134083222347,-0.41678463093799767
1560000008101013248,0.005504511492742059,-0.4444499686179171,0.0009152860857038758,-0.09479227464024802,9.849173678082382,-0.45368484460923436
1560000008111036416,0.005504511492742059,-0.4465763850588722,0.004087832467118913,-0.09403045678374883,9.87312516386557,-0.4905847551602051
1560000008121059328,0.003383122624902535,-0.4476396081512668,0.005145348004633898,-0.14252800339833854,9.921792449725144,-0.5274844582875323
1560000008131082240,-0.0029810433990542923,-0.4465763850588722,0.0019728016232188617,-0.0463314594862682,9.861557405202687,-0.4909886062699971
1560000008141105664,-0.006163126353076531,-0.45082921794078246,0.0009152860857038758,0.007525263971533586,9.815153678181206,-0.4249170794739627
1560000008151129088,-0.004041737717061705,-0.451892411289343,0.0019728016232188617,-0.004599049209966472,9.79082048372356,-0.31421870680619324
1560000008161152000,-0.006163126353076531,-0.45082921794078246,-0.004372291139611212,-0.016723074635211978,9.688996638473093,-0.16435406699263447
1560000008171174656,-0.006163126353076531,-0.45720846726364783,-0.0022572601801462006,-0.02884699601487652,9.61046303613246,-0.035952126697595066
1560000008181197568,-0.005102432150981467,-0.4625244934941186,-0.003314775602096226,-0.04097019143860625,9.707788660849557,-0.035952126697595066
1560000008191220992,0.0023224281909827726,-0.4625244934941186,-0.005429806445996277,-0.04584784617342308,9.710593017342532,-0.10210432671360489
1560000008201244160,0.006565205463012425,-0.4529556343817376,-0.008602353058541234,-0.04584784617342308,9.64976961512346,-0.21278361547362612
1560000008211267328,0.008686594330851949,-0.45720846726364783,-0.0022572601801462006,-0.1789765933451648,9.771114626141385,-0.38486508084262394
1560000008221290496,0.009747288764771711,-0.45720846726364783,-0.001199744758196175,-0.2639604868762363,9.868503342851389,-0.5766840321663065
1560000008231313408,0.005504511492742059,-0.45720846726364783,-0.005429806445996277,-0.2760831366525061,9.929328916688172,-0.7980504890387763
1560000008241336320,0.003383122624902535,-0.4529556343817376,0.007260378617404029,-0.2785114730488516,10.029070571287697,-0.8325583820448282
1560000008251359488,-0.005102432150981467,-0.4540188277302981,0.004087832467118913,-0.2785114730488516,10.077619405226045,-0.7734367218898122
1560000008261382656,-0.01358798692686547,-0.4550820508226927,0.005145348004633898,-0.2785114730488516,9.88297281757844,-0.5274680922276981
1560000008271405568,-0.017830763735245725,-0.4497660245922219,0.008317894154919014,-0.25665265997495723,9.739511097643897,-0.31107011754689984
1560000008281428992,-0.014648681360785232,-0.4497660245922219,0.014662986455489246,-0.2201108271814965,9.630078758042103,-0.11443445566208275
1560000008291452160,-0.008284515220916056,-0.4497660245922219,0.009375409692434,-0.08673859324234018,9.557075354051781,-0.003732114040507009
1560000008301475072,0.0012617339888877088,-0.4455131917103117,0.011490440767463972,-0.01683236570779669,9.54285579762994,0.047539715692343894
1560000008311498496,0.0012617339888877088,-0.451892411289343,0.011490440767463972,-0.041077388152401445,9.615845737786275,0.01064573947199561
1560000008321521408,0.008686594330851949,-0.4540188277302981,0.009375409692434,0.051529331565899936,9.679066867570814,-0.2139444217746975
1560000008331544320,0.010807983198691473,-0.4550820508226927,0.007260378617404029,0.12579059082178468,9.754778118687883,-0.4619391526574099
1560000008341567232,0.015050760007071728,-0.4550820508226927,0.008317894154919014,0.016681822561476822,9.888600473479205,-0.6218221013370661
1560000008351590656,0.006565205463012425,-0.45082921794078246,0.006202863542148884,-0.01912899512933899,9.934157167174186,-0.7147842665208681
1560000008361613824,0.004443817058822297,-0.4540188277302981,0.006202863542148884,-0.007459863254555096,9.921926176476669,-0.7631237471447927
1560000008371636736,-0.0029810433990542923,-0.4529556343817376,0.0019728016232188617,-0.08019471082843403,9.897596672804948,-0.6524421457082042
1560000008381659904,-0.007223820786996293,-0.45827166061220836,0.0030303169296039267,-0.12832481663265216,9.853505556365608,-0.5317619016938354
1560000008391683072,-0.012527292492945707,-0.4625244934941186,0.004087832467118913,-0.14044920682917492,9.780503717419666,-0.3964630924608685
1560000008401705984,-0.014648681360785232,-0.46677732637602887,0.0030303169296039267,-0.17213481228478789,9.776219075744294,-0.33063879349781006
1560000008411729408,-0.014648681360785232,-0.46677732637602887,0.0030303169296039267,-0.19089128358967597,9.778284566586343,-0.2635717634515679
1560000008421752576,-0.009345209654835818,-0.46465090993507374,0.006202863542148884,-0.14239156798715408,9.74178262501216,-0.12826689117917714
1560000008431774976,-0.0029810433990542923,-0.4678405197245894,0.007260378617404029,-0.17503255727733313,9.690482723188035,-0.04536069466942491
1560000008441798400,-0.0019203490810468793,-0.4763461854884099,0.005145348004633898,-0.25879216634005836,9.630428488330722,0.0012618467592444278
1560000008451821568,0.006565205463012425,-0.47528299213984937,0.008317894154919014,-0.22240005886982034,9.654775109896747,-0.2325578852286297
1560000008461844736,0.015050760007071728,-0.468903742816984,0.007260378617404029,-0.20095693579310137,9.734090926331154,-0.46127240390377916
1560000008471856128,0.011868676705312442,-0.4742197690474548,0.007260378617404029,-0.20095693579310137,9.892071308565944,-0.6824058578725061
1560000008481879296,0.008686594330851949,-0.468903742816984,0.010432925229948986,-0.1616571232125762,9.922056392188892,-0.7841805728764434
1560000008491902208,0.003383122624902535,-0.4710301592579391,0.014662986455489246,-0.10548732519648736,9.924624675835808,-0.8216225663461932
1560000008501925120,-0.004041737717061705,-0.46465090993507374,0.009375409692434,-0.020625460621600866,9.936790382260185,-0.7232337048117254
1560000008511948544,-0.011466598059025945,-0.4699669361655445,0.012547955380459275,0.05682586489155187,9.867073274023342,-0.587209460670767
1560000008521971456,-0.007223820786996293,-0.46465090993507374,0.010432925229948986,0.12803616912494853,9.746946719234984,-0.42684770697372065
1560000008531994624,-0.01358798692686547,-0.46677732637602887,0.005145348004633898,0.07953934388873146,9.746946719234984,-0.23005233219132773
1560000008542017536,-0.012527292492945707,-0.46465090993507374,0.005145348004633898,0.021024999376491636,9.711741939332308,-0.08920796684652374
1560000008552040704,-0.008284515220916056,-0.4625244934941186,0.006202863542148884,-0.05170465738215131,9.626593846368989,-0.027722580559772267
1560000008562063872,-0.0019203490810468793,-0.46677732637602887,0.010432925229948986,-0.21321795062415994,9.68005108477451,-0.08634049632760295
1560000008572086528,0.003383122624902535,-0.4603980770531635,0.007260378617404029,-0.3430802084203148,9.746946719234984,-0.2066631421001449
1560000008582109952,0.005504511492742059,-0.4625244934941186,0.007260378617404029,-0.2824676440433725,9.746946719234984,-0.4526229731876091
1560000008592133120,0.005504511492742059,-0.45720846726364783,0.013605471842493944,-0.25912284628900295,9.859144670203316,-0.6305315093364204
1560000008602156288,0.0012617339888877088,-0.45720846726364783,0.012547955380459275,-0.2583707518094872,10.036721296724043,-0.7639068800766222
1560000008612179200,0.00020103955496794668,-0.45827166061220836,0.014662986455489246,-0.20987680714868767,9.902894545190234,-0.7762058919536242
1560000008622202368,-0.007223820786996293,-0.4614613001455581,0.015720501993004232,-0.1512892499818558,9.8349014203936,-0.6861138613813544
1560000008632225536,-0.012527292492945707,-0.4678405197245894,0.017835533068034204,-0.07854617852789102,9.859234887616909,-0.4524262783347962
1560000008642248960,-0.011466598059025945,-0.46465090993507374,0.014662986455489246,0.014028009955519477,9.714545190549618,-0.20863905727394172
1560000008652271872,-0.011466598059025945,-0.4635877165865132,0.014662986455489246,0.08458199033332969,9.57980168140572,0.010553174771753375
1560000008662294784,-0.005102432150981467,-0.4699669361655445,0.017835533068034204,0.06033559712418517,9.616298411479946,0.13354005652851056
1560000008672317952,0.0023224281909827726,-0.4657141032836343,0.011490440767463972,0.06610025332190672,9.63773607303086,0.012966786506531908
1560000008682341120,0.006565205463012425,-0.4699669361655445,0.010432925229948986,0.0882214656820159,9.653451264994041,-0.25757881807794614
1560000008692364288,0.008686594330851949,-0.4678405197245894,0.005145348004633898,0.0033633827190129723,9.848092669543236,-0.5281362588795957
1560000008702387456,0.008686594330851949,-0.4710301592579391,0.006202863542148884,-0.07640456621737834,9.955859193719162,-0.7160380106224464
1560000008712410368,0.004443817058822297,-0.4763461854884099,0.004087832467118913,-0.14914547848509516,9.943693125397907,-0.7898318518752904
1560000008722433536,-0.0008596547630394663,-0.4699669361655445,0.008317894154919014,-0.2019853362527315,9.951499500650431,-0.7121955040349661
1560000008732456704,-0.012527292492945707,-0.47740937883697043,0.009375409692434,-0.23436128615687693,9.923227509038899,-0.5797000356336588
1560000008742480128,-0.010405903625106183,-0.478472601929365,0.006202863542148884,-0.21011445362103398,9.75290478116523,-0.3706186357649065
1560000008752502784,-0.011466598059025945,-0.47740937883697043,0.008317894154919014,-0.1934125825093356,9.688577475126408,-0.1768495983856625
1560000008762525440,-0.010405903625106183,-0.4827254050674412,0.011490440767463972,-0.17989157925571383,9.685773148897777,0.003102971778523934
1560000008772549120,-0.004041737717061705,-0.48485182150839634,0.012547955380459275,-0.10714396508721191,9.56410185549829,-0.009197140506497892
1560000008782571776,0.003383122624902535,-0.48485182150839634,0.012547955380459275,-0.07551284218647004,9.54557308725174,-0.04234561931054956
1560000008792594944,0.008686594330851949,-0.4816621819750466,0.009375409692434,-0.09975765086431723,9.667222307532011,-0.1038350295391706
1560000008802618624,0.009747288764771711,-0.4901678477388671,0.009375409692434,-0.04403973387880251,9.668515915277537,-0.21603295456020677
1560000008812641280,0.013990065573151966,-0.4901678477388671,0.006202863542148884,-0.0067908709245105905,9.69075526623067,-0.3390159381515369
1560000008822664448,0.013990065573151966,-0.4933574575283828,0.004087832467118913,-0.09164768712779281,9.873228793315185,-0.46199476579592413
1560000008832687616,0.013990065573151966,-0.4944206806207774,0.004087832467118913,-0.06271244067000377,9.979577578997219,-0.6080640412330723
1560000008842710784,0.006565205463012425,-0.5007999001998087,0.008317894154919014,0.028502845269363978,10.037510779086727,-0.7669663637388332
1560000008852733696,0.008686594330851949,-0.5007999001998087,0.004087832467118913,-0.0927273188223702,9.988848387159736,-0.8899514210508385
1560000008862756608,-0.0008596547630394663,-0.5071791792665081,0.004087832467118913,-0.14664476378933702,9.940184169354616,-0.8868635062551993
1560000008872780032,-0.007223820786996293,-0.5050527330817189,0.007260378617404029,-0.11027236053550771,9.891517897549203,-0.71466858190305
1560000008882802944,-0.010405903625106183,-0.5039895099893243,0.0019728016232188617,-0.1742762988355655,9.822707315851403,-0.4712000793766999
1560000008892826112,-0.014648681360785232,-0.5103687890560238,0.0030303169296039267,-0.22586932971330015,9.72466297128035,-0.2072819752925606
1560000008902849536,-0.009345209654835818,-0.5093055659636292,0.004087832467118913,-0.16524594617213278,9.542155246273401,0.07562232777528693
1560000008912872448,-0.004041737717061705,-0.5135583988455394,0.005145348004633898,-0.16569089468400494,9.497534629559365,0.18815395526391993
1560000008922895360,0.003383122624902535,-0.514621621937934,0.004087832467118913,-0.19800889194286195,9.53662252031635,0.19148114573605282
1560000008932918528,0.013990065573151966,-0.5124951757531448,0.009375409692434,-0.10103255120415677,9.65826812229171,-0.09136173424461463
1560000008942941696,0.0214149266105903,-0.5124951757531448,0.009375409692434,-0.0824242292439575,9.81138724653671,-0.42724197160692406
1560000008952964608,0.019293537742750777,-0.514621621937934,0.005145348004633898,-0.1672967008398175,10.006061660121075,-0.8331469245994686
1560000008962987776,0.011868676705312442,-0.5135583988455394,0.008317894154919014,-0.14122443010482,10.038796821034225,-1.0651126745029051
1560000008973009664,0.006565205463012425,-0.5156847855426605,0.008317894154919014,-0.10965331064792688,10.047285724829885,-1.178922225136958
1560000008983032320,-0.009345209654835818,-0.5210008415169654,0.005145348004633898,-0.13389912473592852,10.0837815867405,-1.0190431371621838
1560000008993055232,-0.014648681360785232,-0.514621621937934,0.009375409692434,-0.14279102529719978,9.950786046507318,-0.7111790751317508
1560000009003078656,-0.023134235904844536,-0.5231272877017545,0.007260378617404029,-0.14279102529719978,9.723769092757655,-0.3171956085588844
1560000009013101568,-0.02101284703700501,-0.5188744548198443,0.007260378617404029,-0.14279102529719978,9.614277689111985,0.08866106530033668
1560000009023124736,-0.014648681360785232,-0.5178112317274497,0.008317894154919014,-0.09008884185815233,9.494205513159741,0.350174294279361
1560000009033148160,-0.006163126353076531,-0.5305696708855123,0.006202863542148884,0.031150692695116833,9.360374194486827,0.42397100765093876
1560000009043170816,0.011868676705312442,-0.5210008415169654,0.008317894154919014,0.0004515229111703503,9.47049352430297,0.19977723714372664
1560000009053193984,0.017172148874911253,-0.5199376184245708,0.006202863542148884,-0.03153043037386477,9.637270298798272,-0.10924071438010413
1560000009063216896,0.024597009912349588,-0.5188744548198443,0.004087832467118913,0.029082846846440552,9.831913469781721,-0.5027811614798225
1560000009073240320,0.029900480227350812,-0.514621621937934,0.005145348004633898,0.012493954635957469,9.980073781879385,-0.8180050574124329
1560000009083263232,0.019293537742750777,-0.5210008415169654,0.0019728016232188617,-0.047208609093350104,10.094890206359524,-1.0770444126482894
1560000009093286400,0.008686594330851949,-0.5135583988455394,0.0030303169296039267,-0.08357636062146966,10.034065601624016,-1.0401502357769337
1560000009103309568,-0.0019203490810468793,-0.5114320121484184,0.007260378617404029,-0.13587904542493584,9.989224979504462,-0.9170496080902315
1560000009113332736,-0.007223820786996293,-0.5156847855426605,0.006202863542148884,-0.20862104907860077,9.96489187421397,-0.6833655583854545
1560000009123355904,-0.016770070228624756,-0.5156847855426605,0.006202863542148884,-0.20000673139999367,9.797688590132761,-0.41873447458614704
1560000009133379072,-0.011466598059025945,-0.5156847855426605,0.007260378617404029,-0.21061188491830077,9.64966399884463,-0.16877978719207037
1560000009143402240,-0.009345209654835818,-0.5167480086350551,0.009375409692434,-0.33185323224688873,9.64966399884463,0.015714773929215997
1560000009153424896,-0.006163126353076531,-0.5199376184245708,0.008317894154919014,-0.2822985425402555,9.610713000061493,0.026935968056618603
1560000009163448320,0.0023224281909827726,-0.5124951757531448,0.012547955380459275,-0.14229275680897924,9.559381462555944,-0.06421460126755223
1560000009173471488,0.0023224281909827726,-0.514621621937934,0.007260378617404029,-0.13017053039416912,9.729686867436795,-0.273275492813438
1560000009183494400,0.006565205463012425,-0.5199376184245708,0.011490440767463972,-0.0966302530963795,9.824772701484449,-0.46061466320926076
1560000009193517568,0.010807983198691473,-0.5114320121484184,0.013605471842493944,-0.03601049054341002,9.824772701484449,-0.6205075964908324
1560000009203540736,0.007625899896932187,-0.5156847855426605,0.010432925229948986,-0.02645921185948552,9.886272062286292,-0.7078715987179576
1560000009213563648,0.0023224281909827726,-0.5156847855426605,0.008317894154919014,-0.008761547379673884,9.932633364476327,-0.7547392143229295
1560000009223587328,-0.0029810433990542923,-0.5178112317274497,0.009375409692434,0.06399147990694398,9.896129686368292,-0.7178361473060879
1560000009233609984,-0.011466598059025945,-0.5199376184245708,0.009375409692434,0.04301459577975307,9.859632196996236,-0.5620993439716376
1560000009243632896,-0.014648681360785232,-0.5061159561741135,0.007260378617404029,-0.025371313967991607,9.816584889926716,-0.3412799023113872
1560000009253655808,-0.012527292492945707,-0.5178112317274497,0.008317894154919014,-0.0011214585287529465,9.634073968459532,-0.13217236993074144
1560000009263679232,-0.007223820786996293,-0.5103687890560238,0.007260378617404029,0.006913167275684263,9.565467539655852,-0.02176596004591927
1560000009273702400,-0.0029810433990542923,-0.5114320121484184,0.006202863542148884,-0.005210496850891401,9.638464428587513,-0.03406512370928183
1560000009283725312,0.0023224281909827726,-0.5135583988455394,0.004087832467118913,0.06476824991902656,9.659962735439551,-0.22335458899635333
1560000009293748736,0.008686594330851949,-0.5188744548198443,0.0009152860857038758,0.14663492734850175,9.693184733043912,-0.4234493871200342
1560000009303771648,0.010807983198691473,-0.5199376184245708,-0.00014222933624614964,0.21937799880246656,9.790514961473283,-0.5587421781806723
1560000009313794816,0.008686594330851949,-0.514621621937934,-0.003314775602096226,0.1664207325046952,9.85630785583792,-0.5904221250994546
1560000009323817984,0.004443817058822297,-0.5178112317274497,-0.007544837521026249,0.04578015472521722,9.89904472576201,-0.5652257852812078
1560000009333840896,0.005504511492742059,-0.5188744548198443,-0.009659868133796379,-0.06332374049280487,9.826053309136558,-0.5283313885798759
1560000009343864064,0.003383122624902535,-0.52206406460936,-0.006487321983511263,-0.15609053924896715,9.802261678792956,-0.4803808459081438
1560000009353887232,-0.0029810433990542923,-0.5188744548198443,-0.003314775602096226,-0.22883643723319,9.838762380630579,-0.4188817329427236
1560000009363910400,0.00020103955496794668,-0.5188744548198443,-0.0022572601801462006,-0.36342327848597655,9.844230409939428,-0.4724085615381306
1560000009373933568,0.003383122624902535,-0.5178112317274497,-0.0022572601801462006,-0.46022766369194024,9.838124104153929,-0.555463844275266
1560000009383956480,0.00020103955496794668,-0.5199376184245708,0.007260378617404029,-0.41173271810671813,9.813792067289796,-0.6661569699006102
1560000009393979904,0.0012617339888877088,-0.5114320121484184,0.005145348004633898,-0.37113706685316566,9.876685594288881,-0.7207412112160594
1560000009404002816,-0.005102432150981467,-0.5124951757531448,0.005145348004633898,-0.32711298457511107,9.973388109743148,-0.7395189088070979
1560000009414025728,-0.009345209654835818,-0.5093055659636292,0.008317894154919014,-0.1452596294033399,9.839561167250563,-0.653425504176725
1560000009424048896,-0.010405903625106183,-0.5114320121484184,0.008317894154919014,-0.023861292452690957,9.760887512052092,-0.5394473039752844
1560000009434072064,-0.009345209654835818,-0.5093055659636292,0.012547955380459275,0.024636252980940312,9.748720538894434,-0.3918485873102564
1560000009444095232,-0.0029810433990542923,-0.5103687890560238,0.010432925229948986,0.14562783798981593,9.694983015948683,-0.3493174297984299
1560000009454118400,-0.0029810433990542923,-0.5061159561741135,0.0030303169296039267,0.2356756339825081,9.668341336709796,-0.3404323609215851
1560000009464141568,-0.004041737717061705,-0.5093055659636292,0.0030303169296039267,0.19918741859961586,9.741573502709759,-0.3774487838280854
1560000009474112000,0.0023224281909827726,-0.5050527330817189,0.005145348004633898,0.17091765162443945,9.742472883353013,-0.422256032763311
1560000009484135168,0.006565205463012425,-0.4986735135026876,0.007260378617404029,0.1384667466551956,9.71215073897542,-0.4707574381808781
1560000009494158592,0.003383122624902535,-0.5007999001998087,0.0009152860857038758,-0.031253451563882706,9.78514224352846,-0.5076525309821325
1560000009504181248,0.0023224281909827726,-0.4965470970617325,0.0009152860857038758,-0.12340238342917331,9.824772701484449,-0.5670302052416344
1560000009514204160,0.003383122624902535,-0.48697823794935147,0.004087832467118913,-0.12340238342917331,9.824772701484449,-0.6531269192556577
1560000009524227840,0.0023224281909827726,-0.4954838739693379,0.006202863542148884,-0.1962021985908013,9.87695521362957,-0.7181222589306835
1560000009534250752,0.0012617339888877088,-0.49123104108742766,0.006202863542148884,-0.23405063298051135,9.909476409721805,-0.7573573502473323
1560000009544273920,-0.004041737717061705,-0.48910462464647253,0.006202863542148884,-0.13707429224180617,9.860818532923906,-0.7327623297045461
1560000009554297088,-0.008284515220916056,-0.48697823794935147,0.004087832467118913,-0.12798304942123104,9.844230409939428,-0.6757450326261996
1560000009564320256,-0.009345209654835818,-0.48378859841600175,0.006202863542148884,-0.15711702268085356,9.839150019350393,-0.6026932448029011
1560000009574343168,-0.010405903625106183,-0.4805989886264861,0.008317894154919014,-0.07225716961923336,9.753992706761716,-0.5412016499043443
1560000009584366592,-0.009345209654835818,-0.47528299213984937,0.008317894154919014,-0.004134494010504888,9.741638353655905,-0.525001194519826
1560000009594389504,-0.01358798692686547,-0.478472601929365,0.008317894154919014,0.04435973498000288,9.814633985227069,-0.5618983350741946
1560000009604412672,-0.009345209654835818,-0.478472601929365,0.011490440767463972,0.06153543438074551,9.782866136209826,-0.45051965640873937
1560000009614435328,-0.008284515220916056,-0.47740937883697043,0.010432925229948986,0.057785802512463354,9.721461340431055,-0.31523544632611544
1560000009624459008,-0.004041737717061705,-0.468903742816984,0.008317894154919014,0.009297489897241093,9.62414469232254,-0.17996236852574782
1560000009634481664,0.00020103955496794668,-0.4678405197245894,0.008317894154919014,0.017019018689306234,9.60740992251082,-0.20761352857094512
1560000009644504832,0.009747288764771711,-0.45933488370460296,0.006202863542148884,0.05491591004882045,9.639408814838093,-0.32450030081891457
1560000009654528256,0.011868676705312442,-0.4529556343817376,0.009375409692434,0.11552756355698804,9.785387130823855,-0.5335630728366915
1560000009664551168,0.013990065573151966,-0.45082921794078246,0.007260378617404029,0.14241765674713389,9.88060866361195,-0.7312336952364651
1560000009674574080,0.011868676705312442,-0.4476396081512668,0.0030303169296039267,0.1302937400159075,9.917107565173485,-0.9157249246220011
1560000009684597248,0.0012617339888877088,-0.4444499686179171,0.007260378617404029,0.10769043702134759,9.943089452264745,-0.9194769613803764
1560000009694620672,-0.006163126353076531,-0.4338179161569755,0.006202863542148884,0.07379927428946326,9.944840240930601,-0.8590056195536716
1560000009704643584,-0.011466598059025945,-0.43169152945985445,0.004087832467118913,0.013186898556095492,9.88401557173819,-0.6991322399766576
1560000009714666752,-0.012527292492945707,-0.4295651130188993,0.004087832467118913,0.0010015832858965741,9.798883463847343,-0.5146762712617572
1560000009724689920,-0.009345209654835818,-0.4253122801369891,0.005145348004633898,0.009896319683784995,9.705603966042684,-0.3211644002541932
1560000009734712832,-0.009345209654835818,-0.4189330308141237,0.008317894154919014,-0.02647651492960003,9.669103371874947,-0.17356698944113808
1560000009744736256,-0.006163126353076531,-0.41574342102460804,0.011490440767463972,-0.03451336820424902,9.626915702573953,-0.1064585701704512
1560000009754759424,-0.0029810433990542923,-0.4210594472550788,0.0030303169296039267,-0.010265821476076492,9.578250878458567,-0.13105711434282252
1560000009764781824,0.003383122624902535,-0.41680661437316857,0.007260378617404029,0.024506761531046216,9.677464465279842,-0.23040192647556235
1560000009774804992,0.009747288764771711,-0.41786983746556317,0.0030303169296039267,0.03478938496625619,9.776221227608994,-0.3609482580825938
1560000009784828416,0.013990065573151966,-0.40830097835318213,0.005145348004633898,-0.025827677479533892,9.81271860831203,-0.5454318478933149
1560000009794851584,0.009747288764771711,-0.4189330308141237,0.005145348004633898,0.010990013603320095,9.873661988620256,-0.6722596121651685
1560000009804874496,0.004443817058822297,-0.4114905881426978,0.005145348004633898,0.08816296301267515,9.941513130329781,-0.760247355076804
1560000009814897920,0.0023224281909827726,-0.40830097835318213,0.009375409692434,0.06391303610056072,9.941513130329781,-0.7110454614172736
1560000009824921088,-0.005102432150981467,-0.41042739479413726,0.004087832467118913,0.05109533295035362,9.90136562183709,-0.6212598847659159
1560000009834944000,-0.006163126353076531,-0.4029849223788773,0.0030303169296039267,0.05109533295035362,9.816202582704772,-0.4859682612222773
1560000009844967424,-0.008284515220916056,-0.39979531258936163,0.007260378617404029,0.08282108997605837,9.741643516524723,-0.3399366465284045
1560000009854990336,-0.005102432150981467,-0.39979531258936163,0.004087832467118913,0.0893982335226359,9.67861108765601,-0.2057777328258008
1560000009865013248,-0.006163126353076531,-0.40085850593792216,-0.001199744758196175,0.01665948975939492,9.64211396838288,-0.10738881738453795
1560000009875036416,0.00020103955496794668,-0.3976688961484065,0.004087832467118913,-0.0479129651247886,9.646601599942219,-0.10015088577699212
1560000009885059584,0.003383122624902535,-0.3923528699179357,0.006202863542148884,-0.10582079780527583,9.673654162979227,-0.14071481221408466
1560000009895082752,0.004443817058822297,-0.40723775526078754,0.0009152860857038758,-0.13006848671538976,9.734485707433578,-0.22681022405376344
1560000009905106176,0.004443817058822297,-0.4029849223788773,0.006202863542148884,-0.1255024368851148,9.795318987285393,-0.3479854003550267
1560000009915128832,0.011868676705312442,-0.39979531258936163,0.0019728016232188617,-0.08913177340837761,9.85614969147727,-0.5078730956779093
1560000009925152000,0.005504511492742059,-0.39979531258936163,0.004087832467118913,-0.08462512990947602,9.948956859558457,-0.6462120799757286
1560000009935174912,0.0023224281909827726,-0.3987321192408011,0.006202863542148884,-0.0980497830497854,10.002500322769315,-0.7338326632610601
1560000009945198592,-0.004041737717061705,-0.40085850593792216,0.005145348004633898,-0.14654602530145128,9.941667087236226,-0.6969339489734704
1560000009955221504,-0.009345209654835818,-0.3955424797074514,0.009375409692434,-0.12094197018906402,9.87239816898079,-0.5846358415091947
1560000009965182720,-0.016770070228624756,-0.40192172903031675,0.005145348004633898,-0.061428714361362165,9.80245200060857,-0.43259010071046256
1560000009975206400,-0.01995215260308525,-0.4029849223788773,0.010432925229948986,-0.0129324697478427,9.765951452533923,-0.2234975138037306
1560000009985229312,-0.014648681360785232,-0.4040481454712719,0.009375409692434,0.04137563271176318,9.682796100641498,-0.0556729236920715
1560000009995252480,-0.01358798692686547,-0.4051113388198324,0.005145348004633898,0.10200297570012372,9.54894866376274,0.06733699130615517
1560000010005275648,-0.004041737717061705,-0.39979531258936163,0.0009152860857038758,0.08791493712754905,9.597187851453452,0.08206365406034344
1560000010015298560,0.0012617339888877088,-0.4029849223788773,0.0019728016232188617,0.05685255558133319,9.663343292635043,-0.000908765573061257
1560000010025321728,0.0023224281909827726,-0.40085850593792216,0.0030303169296039267,0.008365828570162305,9.712000328843597,-0.2960403775020175
1560000010035345152,0.003383122624902535,-0.406174561912227,0.0009152860857038758,0.025989262254704458,9.909957481753636,-0.6415374485980478
1560000010045368320,-0.005102432150981467,-0.4040481454712719,0.0009152860857038758,0.06648052152521242,10.152523147289127,-0.9678941749343769
1560000010055390976,-0.014648681360785232,-0.4029849223788773,-0.0022572601801462006,0.01799278461460501,10.116029610047686,-0.8203253672835289
1560000010065414144,-0.017830763735245725,-0.39979531258936163,-0.00014222933624614964,-0.07736076439725115,9.932580719706534,-0.5122969363236782
1560000010075437568,-0.026316317352006235,-0.40192172903031675,0.0019728016232188617,-0.22285903639248403,9.591894727215834,-0.032582484388195
1560000010085460480,-0.023134235904844536,-0.40192172903031675,0.0019728016232188617,-0.19686343713612958,9.552381278454277,0.3709865987244777
1560000010095483648,-0.017830763735245725,-0.40085850593792216,0.004087832467118913,-0.14145946212029115,9.531588467880354,0.6209430533523118
1560000010105506816,-0.0019203490810468793,-0.4040481454712719,0.005145348004633898,-0.06871032730367883,9.458584413317277,0.5102397791168841
1560000010115529984,0.011868676705312442,-0.39447928635889085,0.008317894154919014,-0.06247442700370142,9.569120381920905,0.23930806586565417
1560000010125552896,0.018232843308831015,-0.3859736503389044,0.0019728016232188617,-0.08043433233599682,9.757460459291913,-0.10717668149274259
1560000010135576064,0.022475619189912477,-0.389163230384586,0.005145348004633898,-0.031939664020812324,9.879122345334649,-0.47615157342388587
1560000010145598976,0.02035423217667054,-0.3859736503389044,0.008317894154919014,0.01655595523855582,9.977077405799873,-0.7492595506266074
1560000010155621888,0.010807983198691473,-0.37640479122652337,0.010432925229948986,0.06505494349328113,10.050081416579301,-0.9214631476216707
1560000010165645312,0.00020103955496794668,-0.37959440101603903,0.008317894154919014,0.09201664402051171,10.090665483452554,-0.8642844860863143
1560000010175668480,-0.010405903625106183,-0.3721519583446131,0.005145348004633898,0.10926123966921075,10.05338130245338,-0.7071555877213389
1560000010185691648,-0.016770070228624756,-0.3732151814370077,0.007260378617404029,0.10926123966921075,9.834380256744465,-0.37506340063816007
1560000010195714816,-0.023134235904844536,-0.3647095156731872,0.006202863542148884,0.12598306959812572,9.7244524638041,-0.059935093506805065
1560000010205737984,-0.018891458169165487,-0.36045668279127696,0.004087832467118913,0.1469417713400061,9.655913729480222,0.22976229998669576
1560000010215760896,-0.01358798692686547,-0.3636462925807926,0.004087832467118913,0.13481821527325683,9.509921252878806,0.3404537599848913
1560000010225784064,-0.006163126353076531,-0.3562038499093667,0.006202863542148884,0.09291895848746305,9.489426156298006,0.3242761243945566
1560000010235807232,0.0023224281909827726,-0.3540774334684116,0.0009152860857038758,0.02018021236255109,9.598916907409516,0.1766927745922735
1560000010245830400,0.015050760007071728,-0.3540774334684116,0.0019728016232188617,0.04475539280508716,9.719255176122932,-0.12445211813564427
1560000010255853056,0.01611145444099149,-0.3551406565608062,0.0030303169296039267,0.0562990473995436,9.83378704135548,-0.4154170512950862
1560000010265876480,0.013990065573151966,-0.3487614072379408,0.0009152860857038758,0.0078075613506563,9.931109451889693,-0.6367874931038449
1560000010275899648,0.007625899896932187,-0.3423821876589095,0.0009152860857038758,-0.0070705737685035075,10.003138965138996,-0.7132342212673459
1560000010285922560,-0.0008596547630394663,-0.3423821876589095,0.0009152860857038758,-0.0070705737685035075,10.044528175778659,-0.7047208406870018
1560000010295945984,-0.009345209654835818,-0.3381293845208333,0.0009152860857038758,-0.0070705737685035075,9.89851885306348,-0.49561456017209615
1560000010305969152,-0.01358798692686547,-0.3349397449874836,0.0019728016232188617,-0.0070705737685035075,9.806706940288377,-0.24997987696274956
1560000010315991808,-0.012527292492945707,-0.3306869121055733,0.004087832467118913,-0.0070705737685035075,9.77020727819579,0.03291265427590323
1560000010326015232,-0.009345209654835818,-0.324307692526542,0.007260378617404029,-0.028793275640805874,9.646510032737151,0.15054296840158926
1560000010336038144,-0.007223820786996293,-0.32005485964463176,0.007260378617404029,-0.027862612334852543,9.570429505162819,0.17231023920081498
1560000010346061312,0.0023224281909827726,-0.31686522011128204,0.004087832467118913,0.03276112327880247,9.631265574023237,0.012406855660449745
1560000010356084480,0.008686594330851949,-0.3136756103217664,0.007260378617404029,0.05955264608392699,9.709072709742605,-0.15606845443960726
1560000010366107648,0.011868676705312442,-0.30942277743985613,0.005145348004633898,0.06809960985780601,9.797823807241326,-0.32946385652240856
1560000010376130816,0.011868676705312442,-0.30091711167603563,0.010432925229948986,0.043852279242878316,9.919485693284063,-0.5139512899091667
1560000010386153984,0.007625899896932187,-0.29241150539988325,0.006202863542148884,0.09826730024256411,10.059365136108479,-0.7291328688137296
1560000010396177152,0.004443817058822297,-0.2934746987484438,0.008317894154919014,0.2316295998763425,10.217528122480156,-0.9751197721065267
1560000010406199808,0.003383122624902535,-0.2775265903131974,0.011490440767463972,0.4740587857177497,10.134843044026189,-1.3206715563973517
1560000010416222976,-0.014648681360785232,-0.2573256787398748,0.010432925229948986,0.5537875811824582,10.01804224249165,-1.3779899717592003
1560000010426246400,-0.03268048395552481,-0.2392511836075073,0.005145348004633898,0.22642134879651282,9.88420296098666,-0.7383802422506184
1560000010436269568,-0.04010534499296314,-0.24988323606844887,0.0030303169296039267,0.12014652932170058,9.68210016967745,-0.029767552586786317
1560000010446292480,-0.03798395612512362,-0.23712476716655218,0.0019728016232188617,0.10679693265532846,9.443642474249842,0.6803036323045116
1560000010456315904,-0.028437708074443346,-0.2339351425051195,0.009375409692434,0.08268045326109211,9.141129423345314,1.1451496690042098
1560000010466426624,-0.006163126353076531,-0.22542949161321602,0.007260378617404029,0.046094260955373806,9.055445764445992,1.2565235160738009
1560000010476449536,0.019293537742750777,-0.2201134505108282,0.008317894154919014,-0.0023956393951659605,9.189260764679776,1.0105643762158252
1560000010486472704,0.04262881343438796,-0.215860647372752,0.008317894154919014,-0.03993266307244666,9.422010403733378,0.40899635934608636
1560000010496495616,0.04899298003790653,-0.20948139804988664,0.010432925229948986,-0.09843187683059298,9.702333202471246,-0.18936462436136825
1560000010506519040,0.04793228374938918,-0.20948139804988664,0.009375409692434,-0.20754584537366033,10.067322113668265,-0.6936347427572
1560000010516542208,0.04581089859074483,-0.19459652757895185,0.01889304860554919,-0.17135822562514846,10.089223242565762,-0.9897955724817227
1560000010526565120,0.03414325796302986,-0.18290123715369866,0.017835533068034204,-0.06411834560347246,10.011294698881079,-1.166369561455572
1560000010536588544,0.022475619189912477,-0.18077483558466056,0.01889304860554919,0.12987934094213854,10.303312130722409,-1.067966612684886
1560000010546611456,0.005504511492742059,-0.18077483558466056,0.016778017530519218,0.323863637577703,10.398078498756508,-1.1128793175630782
1560000010556634112,0.00020103955496794668,-0.17120597647227953,0.016778017530519218,0.5178301597282315,10.300754582469365,-1.297355259071887
1560000010566657536,-0.0157093748674062,-0.17120597647227953,0.014662986455489246,0.7888139946953677,9.993687644974782,-1.1693849142155943
1560000010576680960,-0.026316317352006235,-0.1414362057865759,0.011490440767463972,0.8771466743842569,9.792646103771894,-0.8351511995481062
1560000010586704128,-0.036923263545801444,-0.1276145137922846,0.0030303169296039267,0.5376487124070495,9.877818716640629,-0.10942504281535459
1560000010596727296,-0.04116603757228532,-0.13399374824323296,-0.0022572601801462006,0.5334274909221906,9.505783479319376,0.4592836625101625
1560000010606750208,-0.029498400653765522,-0.13186734667419486,-0.007544837521026249,0.6308494201264327,9.02095072844816,0.9297760649233635
1560000010616773376,-0.012527292492945707,-0.1127296284494328,-0.0022572601801462006,0.4368765454614931,9.142608995432502,1.1265567914200072
1560000010626796544,0.010807983198691473,-0.11060321944443618,-0.005429806445996277,0.29241648719186886,9.20216193254646,1.059651474951166
1560000010636819456,0.026718398780189112,-0.11166642022895523,-0.008602353058541234,0.19543668412924475,9.20216193254646,0.7399046391338002
1560000010646842368,0.04262881343438796,-0.10528718577800689,-0.010717383671311365,0.06533717789754294,9.434889131222066,0.28575307266695343
1560000010656865536,0.051114368905746055,-0.09997115211157759,-0.007544837521026249,-0.04156300126880448,9.67895671031728,-0.1393784962036954
1560000010666888704,0.051114368905746055,-0.0872126832096809,-0.008602353058541234,-0.09004828736897011,9.897905041196308,-0.4713916738179638
1560000010676911872,0.054296450352907755,-0.07551741509230325,-0.0022572601801462006,-0.01769367602320114,9.96096986847067,-0.6458358401499407
1560000010686935040,0.04687158746087183,-0.06594855597992222,0.0009152860857038758,0.10764980010961918,9.96096986847067,-0.7260123734618569
1560000010696958208,0.033082565383707685,-0.05531649608302214,0.0019728016232188617,0.26525651556036983,9.96096986847067,-0.566124177324469
1560000010706981120,0.029900480227350812,-0.0393683988017135,-0.0022572601801462006,0.2983493276765375,10.035932580947915,-0.41887887205388835
1560000010717004288,0.0214149266105903,-0.03405236885326346,0.0019728016232188617,0.2134912376288377,10.181913331019404,-0.2836001564445648
1560000010727027456,0.024597009912349588,-0.024483513458861683,-0.001199744758196175,0.22836862920897355,9.960908821015716,-0.4068939974156817
1560000010737050368,0.026718398780189112,-0.024483513458861683,0.0019728016232188617,0.20681921774546902,9.835645478729596,-0.554473177460789
1560000010747073792,0.019293537742750777,-0.02873633890481342,-0.0022572601801462006,0.08558401229833296,9.99380422716801,-0.7020613915805246
1560000010757096960,0.015050760007071728,-0.02873633890481342,-0.001199744758196175,0.20723101551735504,10.047501493946815,-0.78804570446375
1560000010767120128,0.005504511492742059,-0.019167481651422014,-0.00014222933624614964,0.353610112373937,10.048359395224015,-0.8238176737833668
1560000010777143296,0.00020103955496794668,-0.007472213069296962,0.0019728016232188617,-0.04639944058884232,9.96321084814025,-0.6639571150403526
1560000010787166464,-0.004041737717061705,-0.01172503805050129,0.0009152860857038758,-0.2272069814419569,9.890628302388915,-0.44054385882264524
1560000010797189376,-0.009345209654835818,-0.01172503805050129,0.0019728016232188617,-0.20296108626283163,9.82980067496886,-0.1576799668152279
1560000010807212544,-0.010405903625106183,-0.007472213069296962,0.0009152860857038758,-0.07861827901578705,9.64620219915717,0.023659029786233354
1560000010817235712,-0.007223820786996293,-0.008535419430784896,0.0009152860857038758,0.01231806054543405,9.55990801509962,0.12933456213257044
1560000010827258624,0.0012617339888877088,-0.008535419430784896,0.009375409692434,0.01231806054543405,9.705885292746036,0.09244124369264116
1560000010837282048,0.004443817058822297,-0.007472213069296962,0.006202863542148884,-0.1183638516723507,9.790660363347193,-0.05050995367441044
1560000010847304704,0.015050760007071728,-0.00959862579227283,0.011490440767463972,-0.2929595134882293,9.835531208855992,-0.2540159192487904
1560000010857327872,0.012929372066530997,-0.003219387971905782,0.015720501993004232,-0.4141961642010914,9.762534319924331,-0.5983924586955817
1560000010867351040,0.018232843308831015,0.01379191183672468,0.026295655519114725,-0.45979026807364926,9.866660279865576,-0.8724316625408063
1560000010877374208,0.015050760007071728,0.03292962634350749,0.030525717669174668,-0.43554184836989546,10.134327887530901,-1.081526767790056
1560000010887397632,0.006565205463012425,0.046751303465881744,0.0379283245827402,-0.34431776962713,10.14433422210382,-1.1433919488220463
1560000010897420544,-0.005102432150981467,0.058446575301238646,0.0432159041193545,-0.11870642139670609,10.08914343402897,-1.141184431323408
1560000010907443200,-0.0157093748674062,0.05950977980373695,0.0432159041193545,0.378362373375983,9.94315008717757,-1.030492311501888
1560000010917466624,-0.022073541470924773,0.06376260153170943,0.04427341780783012,1.0155665491130996,9.718060427140053,-0.6266334476496711
1560000010927489792,-0.028437708074443346,0.058446575301238646,0.027353172905669076,1.6573846808600263,9.470054129647526,-0.10552181346531651
1560000010937512960,-0.027377013640523584,0.05525695807576447,0.014662986455489246,1.9483484055066134,9.275398249959297,0.4479322498994689
