#timestamp [ns],w_RS_S_x [rad s^-1],w_RS_S_y [rad s^-1],w_RS_S_z [rad s^-1],a_RS_S_x [m s^-2],a_RS_S_y [m s^-2],a_RS_S_z [m s^-2]
1560000122929683200,0.00020103955496794668,0.1924105508228635,-0.003314775602096226,0.24498169119790703,9.766403457375873,-0.5493720565177338
1560000122939705856,0.0023224281909827726,0.19772659192525133,-0.001199744758196175,0.24498169119790703,9.766403457375873,-0.5862485732160447
1560000122949729024,0.0012617339888877088,0.2115482839195426,-0.004372291139611212,0.1731462213220202,9.766403457375873,-0.5745465629650991
1560000122959751680,-0.0019203490810468793,0.2158010870576188,-0.0022572601801462006,0.13335140179638744,9.771121495818095,-0.5527144188729952
1560000122969774848,-0.0019203490810468793,0.21473789370905827,-0.005429806445996277,0.1454691180910122,9.78328177637177,-0.5158350512304437
1560000122979797760,-0.0029810433990542923,0.22324354460096174,-0.001199744758196175,0.17668518624024793,9.766695333036123,-0.47895392522411906
1560000122989820416,-0.008284515220916056,0.22536996104191687,-0.001199744758196175,0.20848233473027517,9.749232633599048,-0.435142042056231
1560000122999843584,-0.004041737717061705,0.2296227790519101,-0.0022572601801462006,0.22059968601670146,9.761392552600087,-0.361385471048482
1560000123009866240,-0.004041737717061705,0.23600202837477546,-0.003314775602096226,0.16148327109054494,9.744958825472153,-0.2731802057809002
1560000123019889408,-0.0008596547630394663,0.23281240371334277,-0.006487321983511263,0.052428683521488134,9.708480217184045,-0.17483956825921623
1560000123029912576,-0.004041737717061705,0.23600202837477546,-0.0022572601801462006,0.12292123783481951,9.708034213267297,-0.14934866817256898
1560000123039935232,-0.0029810433990542923,0.23812842994381356,-0.003314775602096226,0.1298213101023627,9.708034213267297,-0.1342986151328831
1560000123049957888,-0.0019203490810468793,0.237065221723336,0.0009152860857038758,0.03288274340022426,9.708034213267297,-0.1342986151328831
1560000123059980544,0.00020103955496794668,0.227496377482872,-0.00014222933624614964,0.021865505958322557,9.727195696453931,-0.16335556502516124
1560000123070003712,-0.0019203490810468793,0.2317491954928652,-0.001199744758196175,0.04992755925984241,9.751517934627755,-0.19561708458341873
1560000123080026624,-0.0008596547630394663,0.22536996104191687,-0.001199744758196175,0.146875646734821,9.775840086747316,-0.20791101611724402
1560000123090049536,0.003383122624902535,0.22855958570334955,-0.001199744758196175,0.15118901118154465,9.771559427900831,-0.22743280486524925
1560000123100072704,-0.005102432150981467,0.21686429527809636,-0.0022572601801462006,0.09060041790533235,9.74723886679348,-0.25201906432901766
1560000123110095616,0.00020103955496794668,0.21792750349857393,-0.004372291139611212,0.13776220583185872,9.770975625956273,-0.2523144035542604
1560000123120118016,0.00020103955496794668,0.22111712816000662,-0.004372291139611212,0.13909505426829427,9.766906026117654,-0.23794329474534875
1560000123130140928,-0.0008596547630394663,0.21686429527809636,0.0009152860857038758,0.06606913025706414,9.718051683544445,-0.2009017838184428
1560000123140095488,0.0012617339888877088,0.2136746854885807,-0.0022572601801462006,0.1083956472715957,9.708034213267297,-0.15455332715305037
1560000123150118144,-0.0008596547630394663,0.2243067528214393,-0.001199744758196175,0.16059096600429498,9.705747482446546,-0.11000589151269327
1560000123160141312,0.0012617339888877088,0.22218033638048418,-0.001199744758196175,0.12423511232512825,9.693586297917212,-0.08541780674098794
1560000123170163968,0.00020103955496794668,0.22324354460096174,-0.003314775602096226,0.0878863907340575,9.710027046630731,-0.1258873334138394
1560000123180186624,0.005504511492742059,0.2243067528214393,-0.001199744758196175,0.0515414528407609,9.746499039790894,-0.21191978885710155
1560000123190209536,0.005504511492742059,0.22855958570334955,-0.0022572601801462006,0.1947316815383213,9.782982536053186,-0.3222624920715931
1560000123200232448,0.003383122624902535,0.2296227790519101,-0.00014222933624614964,0.2884579613679528,9.810032938894615,-0.40906757413629546
1560000123210255616,0.003383122624902535,0.24131803973332921,0.0019728016232188617,0.30057586253546936,9.822192187340058,-0.45824079536362317
1560000123220278528,-0.0008596547630394663,0.24238124795380678,-0.001199744758196175,0.31269362481321983,9.824772701484449,-0.4396240766764345
1560000123230301696,-0.0029810433990542923,0.2476972890561946,-0.001199744758196175,0.32481174586400424,9.811072043966293,-0.3865845143818707
1560000123240324096,-0.004041737717061705,0.2604557579580913,-0.0022572601801462006,0.3369291331421666,9.738113526093134,-0.2636565165397551
1560000123250347264,-0.006163126353076531,0.2572661481685756,0.0009152860857038758,0.31343190447141533,9.693737683857641,-0.15516494352022092
1560000123260369664,-0.006163126353076531,0.2689614237219118,0.0009152860857038758,0.26495612910490274,9.669414663770905,-0.05680997426689169
1560000123270392832,0.003383122624902535,0.2710878401628669,0.004087832467118913,0.2763426854141699,9.657106326297471,-0.05562142285196492
1560000123280416000,0.005504511492742059,0.28065669927524795,-0.00014222933624614964,0.25554467706743134,9.673258251349468,-0.0937850245357103
1560000123290438656,0.006565205463012425,0.2817198926238085,-0.003314775602096226,0.18283750986363373,9.73405977080011,-0.19213122005960465
1560000123300461824,0.006565205463012425,0.2849095321571582,-0.001199744758196175,0.20562959475106313,9.79486751072194,-0.3292421495835539
1560000123310484480,0.007625899896932187,0.29979438775617595,-0.0022572601801462006,0.23814032339516716,9.841941829333015,-0.4536343012413631
1560000123320507392,0.005504511492742059,0.29447836152570517,-0.005429806445996277,0.20178534159016392,9.829780327612246,-0.47822180832423133
1560000123330530048,0.005504511492742059,0.28809914194667385,0.0019728016232188617,0.2224603108414332,9.810465169664612,-0.4449533866655656
1560000123340553216,0.0023224281909827726,0.3040472206380862,-0.003314775602096226,0.2830569953783634,9.786141960569786,-0.3711847620426871
1560000123350576128,-0.004041737717061705,0.31255285665807264,-0.005429806445996277,0.25980271507005476,9.737780009750844,-0.2488150602961341
1560000123360599040,0.0023224281909827726,0.3040472206380862,-0.004372291139611212,0.2308558115923709,9.703309046764442,-0.14975327253111254
1560000123370622208,-0.0029810433990542923,0.309363246868557,-0.005429806445996277,0.1944945589217403,9.691146053880532,-0.08827392004988947
1560000123380644864,-0.0008596547630394663,0.318932105980938,0.0009152860857038758,0.119906937322873,9.678985493847668,-0.07529072092219447
1560000123390667776,0.004443817058822297,0.30830005351999645,-0.004372291139611212,0.05567011492403266,9.678302323997647,-0.09385474054376855
1560000123400690432,0.0023224281909827726,0.30723683042760186,-0.0022572601801462006,0.0799038925691301,9.726939513564531,-0.19219304962534028
1560000123410713600,0.005504511492742059,0.3019208041971311,-0.001199744758196175,0.03280919317177074,9.775578285719702,-0.3122430843737932
1560000123420736512,0.005504511492742059,0.3040472206380862,-0.001199744758196175,-0.06412735609813106,9.824216198333394,-0.4474602432957876
1560000123430759168,0.003383122624902535,0.3040472206380862,-0.003314775602096226,-0.05325780725674243,9.824772701484449,-0.4611594319066177
1560000123440782080,-0.0029810433990542923,0.28703591885427926,-0.00014222933624614964,-0.041139849093251975,9.805874800205835,-0.42091517262825
1560000123450804992,0.00020103955496794668,0.2849095321571582,-0.003314775602096226,-0.029021340077006998,9.757231102443674,-0.29797585728999726
1560000123460828160,-0.005102432150981467,0.2817198926238085,-0.006487321983511263,-0.007346156034806758,9.689406628107601,-0.1556453266808811
1560000123470851072,-0.0029810433990542923,0.2764038663933377,-0.003314775602096226,0.0008860193535700743,9.634796138598976,-0.026674104897320954
1560000123480873984,0.0023224281909827726,0.2700246170704723,-0.0022572601801462006,-0.059702934209814915,9.659116844327379,0.022498708827051635
1560000123490896896,0.005504511492742059,0.26364536774760694,-0.003314775602096226,-0.09889034014958228,9.697751026605372,-0.0658127856719046
1560000123500919296,0.011868676705312442,0.24876048240475512,-0.003314775602096226,-0.12312223261587507,9.746384456303911,-0.2501828562436091
1560000123510942464,0.010807983198691473,0.24344445617428434,-0.00014222933624614964,-0.12340238342917331,9.83109464550207,-0.47105868380705884
1560000123520965376,0.012929372066530997,0.2296227790519101,-0.001199744758196175,-0.14223898771138282,9.887869577567635,-0.6398030067618096
1560000123530988288,0.004443817058822297,0.21686429527809636,0.0009152860857038758,-0.1907130332194512,9.900030653627416,-0.7258605706076087
1560000123541011456,-0.0019203490810468793,0.20516903459667724,-0.001199744758196175,-0.22962913926468512,9.864236262461908,-0.6180021300588642
1560000123551034112,-0.004041737717061705,0.19772659192525133,-0.001199744758196175,-0.25683638770972234,9.808711494694482,-0.4396352653730708
1560000123561057024,-0.009345209654835818,0.18496812302335464,0.0009152860857038758,-0.24471680225840747,9.723577580655471,-0.1814396498481325
1560000123571079680,-0.011466598059025945,0.1700832228085858,-0.0022572601801462006,-0.2611414980269712,9.63845204251039,0.026056085139697635
1560000123581102848,-0.006163126353076531,0.1541351292452564,-0.00014222933624614964,-0.2974962541589939,9.55332688851413,0.1981675667329897
1560000123591126016,-0.0008596547630394663,0.14775589479430806,0.0019728016232188617,-0.2499655524989451,9.564407013263398,0.13929388879228294
1560000123601148672,0.006565205463012425,0.13074459301050112,-0.00014222933624614964,-0.20620920630132447,9.61439565268047,0.03480822329426951
1560000123611171840,0.009747288764771711,0.12542856678003034,-0.001199744758196175,-0.1698587452875665,9.723828830307614,-0.13728278177676986
1560000123621194496,0.013990065573151966,0.1084172649962234,0.0009152860857038758,-0.11428797950801045,9.785394162126382,-0.3388260310814135
1560000123631216896,0.013990065573151966,0.10203803054527505,0.0019728016232188617,-0.058252732176082664,9.838789258928436,-0.5221849734368649
1560000123641204736,0.004443817058822297,0.09246917886885253,-0.001199744758196175,-0.022026483506437204,9.911496245610396,-0.5956862488025134
1560000123651227392,0.004443817058822297,0.08077391075147489,-0.00014222933624614964,-0.021333697214889286,9.891417566462666,-0.5898570835342214
1560000123661250816,-0.0029810433990542923,0.05950977980373695,-0.004372291139611212,-0.0455682675099022,9.806299852339988,-0.5283936445660387
1560000123671273472,-0.005102432150981467,0.060572984306235256,-0.004372291139611212,-0.10573367143626453,9.757240965252723,-0.39402861971381853
1560000123681296640,-0.009345209654835818,0.0403720690149334,-0.00014222933624614964,-0.18044347120851675,9.718044775769943,-0.25402606294829866
1560000123691319296,-0.010405903625106183,0.025487179954102324,-0.003314775602096226,-0.2773892371924662,9.693723202212004,-0.10650237826885611
1560000123701342464,-0.007223820786996293,0.015918324559700547,-0.005429806445996277,-0.2692378369810714,9.659814523047853,-0.05590593517639346
1560000123711365120,-0.0029810433990542923,0.00528626233906343,0.0009152860857038758,-0.23745222133245897,9.63249727545832,-0.052157354566768385
1560000123721387776,-0.0008596547630394663,-0.004282594217206864,-0.004372291139611212,-0.22533670728943317,9.644655350761806,-0.13819364771709775
1560000123731410944,0.0012617339888877088,-0.013851450773477159,-0.001199744758196175,-0.19184312477493387,9.692567502647469,-0.23869607187074438
1560000123741433856,0.004443817058822297,-0.025546719820349617,-0.001199744758196175,-0.14337555532200144,9.765523590195707,-0.34932666165531645
1560000123751456768,0.004443817058822297,-0.029799543407311724,-0.0022572601801462006,-0.07096648947488979,9.802441268018635,-0.4721012903273727
1560000123761480192,0.006565205463012425,-0.04255801974516693,-0.00014222933624614964,0.0017416546241100922,9.829489590220078,-0.5568902277315081
1560000123771502848,0.00020103955496794668,-0.038305194299215195,0.005145348004633898,0.07445163475927574,9.841651091940847,-0.5814777156550958
1560000123781525248,-0.0019203490810468793,-0.04149481152468937,0.0009152860857038758,0.14715389752757713,9.815489164538505,-0.5188968974985251
1560000123791548416,-0.005102432150981467,-0.03724198979671689,-0.006487321983511263,0.20165222482196413,9.765303582976895,-0.407444530099233
1560000123801571328,-0.0008596547630394663,-0.03617878157623933,-0.0022572601801462006,0.1774159227536989,9.655858365833597,-0.18616033297265772
1560000123811594496,-0.0019203490810468793,-0.04149481152468937,-0.004372291139611212,0.14605531357533802,9.603602169235714,-0.044370541065862905
1560000123821617408,0.003383122624902535,-0.03617878157623933,-0.005429806445996277,0.10970140568449276,9.591441029130769,0.04168315572764289
1560000123831640320,0.011868676705312442,-0.038305194299215195,-0.0022572601801462006,0.07335283638055966,9.591293784421964,-0.10298772623556035
1560000123841663232,0.017172148874911253,-0.03724198979671689,-0.004372291139611212,0.05109533295035362,9.662009690234155,-0.3219861621770705
1560000123851685888,0.017172148874911253,-0.03617878157623933,-0.001199744758196175,0.05109533295035362,9.844420885456156,-0.6539144512090107
1560000123861708544,0.015050760007071728,-0.032989162491775526,0.0019728016232188617,0.0606404855236749,9.921458126943588,-0.8793107301295535
1560000123871731712,0.007625899896932187,-0.03617878157623933,-0.0022572601801462006,0.07958117480301026,9.963252158346704,-1.0275501775662281
1560000123881754624,0.0012617339888877088,-0.027673132543325485,-0.003314775602096226,0.12805233175213893,9.975412511210905,-0.9660841610094631
1560000123891777536,-0.011466598059025945,-0.026609924322847922,-0.00014222933624614964,0.16940192814812605,9.908965450776387,-0.810703818982232
1560000123901800704,-0.01358798692686547,-0.019167481651422014,0.0009152860857038758,0.20575562220806454,9.787361443842139,-0.5894242276662727
1560000123911823360,-0.022073541470924773,-0.013851450773477159,0.0030303169296039267,0.24210972197353084,9.665756079812853,-0.23458365939122194
1560000123921846272,-0.0157093748674062,-0.010661831689013357,0.0009152860857038758,0.2549749153165476,9.558294563220132,0.07903136097877712
1560000123931868928,-0.008284515220916056,-0.003219387971905782,0.004087832467118913,0.23074041005415755,9.47317649596625,0.3248844187964115
1560000123941891840,0.0012617339888877088,-0.004282594217206864,-0.0022572601801462006,0.18742047758750457,9.464674251589713,0.2996528352030791
1560000123951914752,0.006565205463012425,0.001033437125485398,0.0009152860857038758,0.12533073729052222,9.499620501331066,0.16446118954978842
1560000123961937664,0.022475619189912477,0.006349468235803957,0.0009152860857038758,0.004187064177819,9.633346002515914,-0.13049233320198944
1560000123971960832,0.024597009912349588,0.0020966432545996283,0.004087832467118913,-0.08852244624202316,9.731401966914966,-0.46156071122240766
1560000123981983488,0.024597009912349588,-0.001092975481303618,0.0030303169296039267,-0.16121989073218848,9.804354756387243,-0.8180179905413514
1560000123992006400,0.022475619189912477,-0.01172503805050129,0.0030303169296039267,-0.5089355301793537,9.769320011578449,-0.9318957115453043
1560000124002029056,0.022475619189912477,-0.025546719820349617,0.007260378617404029,-0.8884412841935202,9.685822231945544,-1.066293748664269
1560000124012052480,0.024597009912349588,-0.05531649608302214,0.0019728016232188617,-1.312552589127331,9.527743087621273,-1.2383939974682825
1560000124022075392,0.02883978579343105,-0.10422398499348784,0.008317894154919014,-0.8311475828896223,9.580097628393526,-1.449172957986275
1560000124032098048,0.03838603569870891,-0.1382465811251432,0.008317894154919014,-0.2329528213074397,9.675925952653904,-1.6796153601397095
1560000124042120960,0.04156811714587061,-0.17758521092322788,-0.001199744758196175,-0.1965994420875135,9.71240701124651,-1.95006574102903
1560000124052143872,0.04368950601371013,-0.22968232449512627,0.0019728016232188617,0.1809095232863125,9.741755341334969,-2.2637779437901444
1560000124062166784,0.04262881343438796,-0.2233030751722609,-0.001199744758196175,0.7989167811745193,9.766075440622476,-2.6079876518347684
1560000124072189696,0.03414325796302986,-0.1999125389375056,-0.008602353058541234,0.5801274962861289,9.886362022011348,-2.6732650612014033
1560000124082212608,0.0214149266105903,-0.22755590805417114,0.0030303169296039267,0.34054723463755876,9.951573090830347,-2.5684851918297986
1560000124092235520,0.011868676705312442,-0.1743955862617952,0.0009152860857038758,0.08611148617899433,9.927256000327327,-2.1997439133087564
1560000124102258432,0.0012617339888877088,-0.14462583044800859,0.0009152860857038758,0.46990881010039726,10.027211447152537,-2.120897714478488
1560000124112281344,-0.010405903625106183,-0.12867772201276217,-0.001199744758196175,0.8446717392519674,10.115716680176597,-2.086588659580166
1560000124122304256,-0.017830763735245725,-0.07339100608730664,-0.003314775602096226,0.42056175270780494,10.006277364911462,-1.902196130959537
1560000124132327168,-0.028437708074443346,-0.05850611330849631,0.0030303169296039267,0.35134429928806077,9.97520171811273,-1.717955995345221
1560000124142371840,-0.039044648704445795,-0.03617878157623933,0.0009152860857038758,0.5332465944553539,9.999541156199586,-1.5334205578887976
1560000124152394752,-0.04965159675283859,-0.010661831689013357,0.0030303169296039267,0.6313752823498449,9.868022244354316,-1.1066740236218742
1560000124162417408,-0.05283367820000029,0.003159849616087562,0.008317894154919014,0.7002681988501187,9.781169866164749,-0.6622136416392037
1560000124172440832,-0.05495506706783981,0.025487179954102324,0.0019728016232188617,0.7245060001469013,9.769008392358904,-0.19502895430438283
1560000124182463488,-0.04116603757228532,0.0403720690149334,0.0019728016232188617,0.672566831510632,9.374640803176678,0.37836202924647794
1560000124192486144,-0.028437708074443346,0.049940924409335175,-0.00014222933624614964,0.6336217851570448,9.020628823244847,0.8323036980043306
1560000124202508800,0.0023224281909827726,0.060572984306235256,-0.003314775602096226,0.7426818378340811,9.300315119798803,0.6356124910029053
1560000124212531968,0.013990065573151966,0.07652107786956464,-0.007544837521026249,0.6956045320426932,9.57286230410937,0.20134783047710225
1560000124222554880,0.024597009912349588,0.08715314520242323,-0.008602353058541234,0.5380967048989547,9.840349086941085,-0.4009295413027635
1560000124232578048,0.018232843308831015,0.09778520509932331,-0.007544837521026249,0.2134377228878418,10.02395467703561,-0.7851592041189384
1560000124242600704,0.015050760007071728,0.11160688965765608,-0.008602353058541234,-0.03434921015136101,10.117347299071586,-0.9910113211218022
1560000124252623616,-0.0029810433990542923,0.1211757413340786,-0.005429806445996277,-0.15551809365593564,10.068710109504702,-0.9172575914059206
1560000124262646528,-0.010405903625106183,0.13180780123097868,-0.001199744758196175,-0.30524648026390144,9.943688072822432,-0.5056928526385054
1560000124272669440,-0.02101284703700501,0.13180780123097868,-0.00014222933624614964,-0.3662914898062156,9.790990262487844,-0.03348670097194783
1560000124282692352,-0.01995215260308525,0.11692292332408538,-0.001199744758196175,-0.002705929371547011,9.608560752479198,0.2984771127185877
1560000124292715264,-0.017830763735245725,0.11479650688313026,-0.00014222933624614964,0.27571331995551085,9.490216786054978,0.551242539322901
1560000124302738176,-0.010405903625106183,0.11798612410860443,-0.00014222933624614964,0.49381731640093146,9.417260092110919,0.7479191263559162
1560000124312761088,0.003383122624902535,0.11479650688313026,-0.00014222933624614964,0.5686662939217489,9.512029337015662,0.5691467228263637
1560000124322784000,0.006565205463012425,0.11904933232908199,-0.00014222933624614964,0.524690987609266,9.618672435327785,0.31374072071913595
1560000124332806912,0.015050760007071728,0.1211757413340786,-0.005429806445996277,0.2944803467886168,9.740260289900782,-0.055011494322232735
1560000124342829824,0.018232843308831015,0.1339342176719338,-0.005429806445996277,0.11179573202878199,9.861869961472626,-0.3273184824908699
1560000124352852736,0.011868676705312442,0.13818705055384406,-0.004372291139611212,-0.030946152479554574,9.956467167182646,-0.5254086353988359
1560000124362875648,0.004443817058822297,0.14243986856383728,-0.003314775602096226,-0.05518497241364388,9.932143206832189,-0.5131137946626677
1560000124372898560,-0.005102432150981467,0.13499742589241137,-0.006487321983511263,0.04116836399301284,9.872226737219457,-0.38567748221096126
1560000124382921472,-0.006163126353076531,0.1520087276762183,-0.00014222933624614964,0.22295952294247312,9.787093482514909,-0.1766650795204115
1560000124392944384,-0.008284515220916056,0.1520087276762183,-0.001199744758196175,0.3091962248548481,9.677994047006306,0.05657052559884845
1560000124402967296,-0.004041737717061705,0.15945117034764422,-0.003314775602096226,0.3332730792079663,9.596682031299753,0.21430262158984
1560000124412990208,0.0023224281909827726,0.16902001458810822,-0.00014222933624614964,0.26056028605767556,9.560197935277973,0.2511852791446093
1560000124423013120,0.006565205463012425,0.1722096392495409,-0.003314775602096226,0.23546045997535964,9.609708830586946,0.08522436812168846
1560000124433036032,0.011868676705312442,0.1753992639109736,-0.003314775602096226,0.2188433869539899,9.687182834458035,-0.1383266819376144
1560000124443058432,0.01611145444099149,0.1828417065823995,-0.004372291139611212,0.18249499375704956,9.784451139793948,-0.37186555078554795
1560000124453081856,0.017172148874911253,0.1860313312438322,-0.001199744758196175,0.28803830943163,9.86037117396304,-0.5550463718377175
1560000124463104512,0.009747288764771711,0.18709453946430976,-0.0022572601801462006,0.49402051832967037,9.921166972705882,-0.7025503416018537
1560000124473127680,0.005504511492742059,0.20516903459667724,-0.005429806445996277,0.508975112519033,9.886107685847955,-0.6925942609919389
1560000124483150848,0.0012617339888877088,0.2136746854885807,-0.003314775602096226,0.4557010096159912,9.830876301378238,-0.6281769141276733
1560000124493173504,-0.007223820786996293,0.22218033638048418,-0.004372291139611212,0.29816741426388427,9.745753172242921,-0.4806562773682984
1560000124503196416,-0.006163126353076531,0.23919163816429112,-0.003314775602096226,0.22629925865598965,9.660632548763644,-0.3524519263085004
1560000124513218816,-0.0019203490810468793,0.24025484638476868,-0.0022572601801462006,0.18681579581018326,9.5845321712248,-0.2523144035542604
1560000124523242240,0.004443817058822297,0.25088689884571025,-0.0022572601801462006,0.18681579581018326,9.548050525893439,-0.2523144035542604
1560000124533264896,0.007625899896932187,0.2572661481685756,-0.001199744758196175,-0.018878026818265503,9.604102223439721,-0.39622569778526
1560000124543288064,0.012929372066530997,0.24982370549714972,-0.005429806445996277,-0.3702970662501339,9.72570623037397,-0.6420919476113756
1560000124553310976,0.015050760007071728,0.22643316926239443,-0.00014222933624614964,0.030563604945103517,9.85931000327636,-0.9122210487807663
1560000124563333632,0.013990065573151966,0.23919163816429112,-0.0022572601801462006,0.15761752531423345,9.936824815454253,-1.0405086229459486
1560000124573356032,0.005504511492742059,0.2445076643947619,-0.00014222933624614964,-0.16954236378756637,9.924665221894124,-0.9421691985533142
1560000124583379456,0.0012617339888877088,0.22111712816000662,-0.00014222933624614964,-0.10646350173646521,9.883845776561877,-0.8148420753797004
1560000124593402368,-0.010405903625106183,0.21686429527809636,-0.0022572601801462006,-0.07176220213912642,9.823915500958469,-0.6545068136192137
1560000124603425536,-0.01358798692686547,0.21686429527809636,-0.005429806445996277,-0.6292186303347347,9.71446544667684,-0.38403786915561994
1560000124613448192,-0.007223820786996293,0.19028416412574245,0.0009152860857038758,-0.5549528355410186,9.66199771868497,-0.1999753408635444
1560000124623471360,-0.007223820786996293,0.17752568035192873,-0.00014222933624614964,-0.033798023672665045,9.6498352683639,-0.07702212679114923
1560000124633494016,-0.004041737717061705,0.17433605569049604,0.0009152860857038758,-0.03843812362215946,9.613601033459036,0.021927790854653115
1560000124643473920,-0.004041737717061705,0.1498823112352632,-0.00014222933624614964,-0.08325703800539735,9.624141800996956,0.05834446149584189
1560000124653496576,0.008686594330851949,0.14881910301478563,-0.001199744758196175,-0.1801999307579885,9.70926477725016,-0.00312190621630927
1560000124663519744,0.006565205463012425,0.14350307678431484,-0.004372291139611212,-0.3628449101899307,9.77527134833941,-0.08390751466563126
1560000124673542400,0.008686594330851949,0.11798612410860443,-0.003314775602096226,-0.5395688670099656,9.829291178899835,-0.16995495464808946
1560000124683565312,0.005504511492742059,0.09884841331980088,-0.00014222933624614964,-0.588040722164869,9.853612852659815,-0.2560086442570787
1560000124693588480,0.00020103955496794668,0.09140597064837497,0.0030303169296039267,-0.5371264512694325,9.84231514768391,-0.2628452048714276
1560000124703611136,0.00020103955496794668,0.060572984306235256,0.0019728016232188617,-0.41594423434663175,9.80583339380954,-0.21367064371076155
1560000124713634048,-0.004041737717061705,0.05313054163480935,0.0019728016232188617,-0.3305935112564353,9.733376026680098,-0.07964146302450256
1560000124723656960,-0.005102432150981467,0.028676799038566125,-0.00014222933624614964,-0.19896337752637527,9.669794766282326,0.0176275763381699
1560000124733680128,-0.0029810433990542923,0.008475880958779825,0.0030303169296039267,0.007079471580914876,9.621144414331487,0.054514420955602855
1560000124743702784,0.004443817058822297,0.003159849616087562,0.004087832467118913,-0.03465419894139636,9.639434592364044,-0.014930800038743211
1560000124753725440,0.005504511492742059,-0.0064090067078090285,0.0009152860857038758,-0.11212623523401616,9.68269953179186,-0.14071753074341647
1560000124763748608,0.009747288764771711,-0.026609924322847922,0.0009152860857038758,-0.051544858860290074,9.75565193225941,-0.3865508590516239
1560000124773771520,0.008686594330851949,-0.02342030709737375,-0.001199744758196175,-0.012259384367319338,9.814359603342652,-0.5891836167222816
1560000124783794432,0.009747288764771711,-0.02342030709737375,-0.001199744758196175,0.01197619469740293,9.863001014799462,-0.7612884324277418
1560000124793817344,0.003383122624902535,-0.025546719820349617,-0.001199744758196175,0.19152890149749371,9.851697793798614,-0.7394754761545745
1560000124803840512,-0.0008596547630394663,-0.022357100735885815,-0.001199744758196175,0.32185657020760544,9.816068616558129,-0.6816730201580863
1560000124813863424,-0.005102432150981467,-0.015977862566958212,-0.001199744758196175,0.370325561848174,9.743110359828208,-0.5710391362376526
1560000124823886080,-0.007223820786996293,-0.0021561817266047,-0.001199744758196175,0.36165651557692247,9.689265891812035,-0.47006855903369554
1560000124833908992,-0.0019203490810468793,0.01379191183672468,-0.001199744758196175,0.35993658514010207,9.656442111456768,-0.396851658061321
1560000124843931648,0.004443817058822297,0.022297560869638522,-0.001199744758196175,0.4568737036164933,9.692921217587743,-0.4337292712144509
1560000124853954816,0.0023224281909827726,0.0403720690149334,-0.00014222933624614964,0.4473486900985558,9.736525166494344,-0.5138131469194711
1560000124863977728,0.006565205463012425,0.04781451168635931,-0.001199744758196175,0.3625241669129754,9.785165971510255,-0.6244519652265924
1560000124874000896,0.006565205463012425,0.05525695807576447,-0.00014222933624614964,0.6241101805202343,9.8338092442253,-0.7472132697632969
1560000124884023552,-0.0019203490810468793,0.06907864263409724,-0.00014222933624614964,0.7270923932142698,9.854304679846548,-0.784785133432848
1560000124894046208,-0.004041737717061705,0.09778520509932331,-0.0022572601801462006,0.5695470959895834,9.829981197971893,-0.6864307565164165
1560000124904069376,-0.006163126353076531,0.11054368143717852,-0.003314775602096226,0.6310521474955626,9.78654300343729,-0.568750089415881
1560000124914092288,-0.009345209654835818,0.1264917750005079,-0.006487321983511263,0.743222972129015,9.74242254741418,-0.45724238091574987
1560000124924114944,-0.005102432150981467,0.15519833746573397,-0.003314775602096226,0.8159311872700068,9.718101941915076,-0.3957751232899871
1560000124934138368,-0.006163126353076531,0.17752568035192873,-0.003314775602096226,0.8176196827801999,9.700906835276287,-0.3559197157331417
1560000124944161280,-0.006163126353076531,0.2094218674785875,-0.003314775602096226,0.7691471069720925,9.688746120825046,-0.3313325646244707
1560000124954183680,-0.0029810433990542923,0.22855958570334955,-0.004372291139611212,0.7565255139670428,9.712560098982149,-0.4522147349493147
1560000124964206592,-0.0029810433990542923,0.2593925348656967,-0.004372291139611212,0.6695402986635416,9.736881929520669,-0.5656598196530603
1560000124974229760,0.0023224281909827726,0.3008575811047365,-0.001199744758196175,0.4635207306621353,9.761204053710467,-0.6640136306125086
1560000124984252416,0.00020103955496794668,0.32105852242189314,-0.00014222933624614964,0.5719112352268125,9.804645263557251,-0.7623581190312315
1560000124994275328,-0.004041737717061705,0.345512266877126,0.0009152860857038758,0.7274412497418925,9.837437504201855,-0.8263700241326376
1560000125004298496,-0.006163126353076531,0.3795348704447399,-0.00014222933624614964,0.7153218788370629,9.800951780781954,-0.7403066510936345
1560000125014321152,-0.007223820786996293,0.400798975366623,-0.00014222933624614964,0.7671514698478865,9.75733946825331,-0.6614592534378708
1560000125024344320,-0.007223820786996293,0.42631594291425046,0.0030303169296039267,0.8640990030848985,9.708696059832866,-0.5876960742552234
1560000125034366976,-0.005102432150981467,0.4486432709285282,-0.001199744758196175,0.6861190759285778,9.708034213267297,-0.4533032189998886
1560000125044390144,-0.0029810433990542923,0.4656545727123351,-0.0022572601801462006,0.5090284830982381,9.703334906538037,-0.35607827057951946
1560000125054412800,-0.0019203490810468793,0.47947623496279235,-0.004372291139611212,0.3393859943201714,9.6911750237186,-0.31920008043800074
1560000125064435968,0.0012617339888877088,0.48691867763421826,-0.008602353058541234,0.23644448943359503,9.698139961381745,-0.3016553428636955
1560000125074458880,0.005504511492742059,0.48266587449614207,-0.004372291139611212,0.14034058210337608,9.71482952675926,-0.2916529958630001
1560000125084481536,-0.0008596547630394663,0.48053945805518694,-0.005429806445996277,-0.005045652498242126,9.751303146342403,-0.2916529958630001
1560000125094504448,0.0023224281909827726,0.47097062868663997,-0.006487321983511263,-0.14334821266927833,9.766403457375873,-0.2628375604551173
1560000125104527360,0.0023224281909827726,0.46884421224568484,-0.008602353058541234,-0.2766438939843032,9.766403457375873,-0.2136647539151545
1560000125114550272,-0.0019203490810468793,0.4560857135999541,-0.009659868133796379,-0.31435743364958035,9.766403457375873,-0.10388125502439076
1560000125124573184,-0.0019203490810468793,0.4475800478361336,-0.003314775602096226,-0.36008491793258224,9.761705506037762,0.006791349298987989
1560000125134596096,-0.004041737717061705,0.43163196914472124,-0.008602353058541234,-0.4207189273065391,9.74953610704196,0.1175124650436645
1560000125144607744,0.00020103955496794668,0.4071782246894884,-0.006487321983511263,-0.4907755761329109,9.70871001799659,0.21838136905632977
1560000125154630400,-0.0008596547630394663,0.3944197557875917,-0.006487321983511263,-0.5589709348090492,9.67364584233713,0.30071320768933224
1560000125164653568,0.003383122624902535,0.3689028179837983,-0.006487321983511263,-0.6074418188724898,9.69796640344448,0.31300634939516153
1560000125174676224,0.003383122624902535,0.3391330175542606,-0.008602353058541234,-0.7269278089638789,9.743666377297448,0.2604609500640611
1560000125184699392,0.0023224281909827726,0.31255285665807264,-0.0022572601801462006,-0.8965909803901397,9.804473204000415,0.1621071391046128
1560000125194722048,0.0012617339888877088,0.24876048240475512,-0.010717383671311365,-0.026689816338403505,9.865270855252191,0.027402096707763418
1560000125204744704,-0.005102432150981467,0.17965208192096682,-0.022350053659456526,-0.3113245258966525,9.869749880642294,0.0060536061611724465
1560000125214768128,-0.011466598059025945,0.12330215033907521,-0.03398272087404264,-2.4559884209248026,9.784634749573383,0.16585145496810627
1560000125224790784,-0.009345209654835818,0.06588901797266455,-0.018119991509396582,-2.5344884262664586,9.623073607529763,0.364295666587884
1560000125234813952,-0.004041737717061705,0.028676799038566125,-0.006487321983511263,-2.020494832436641,9.488110236909476,0.5253214438288422
1560000125244836608,0.004443817058822297,0.011665499113748812,0.007260378617404029,-1.3782959178961607,9.561066758149574,0.47615202393874845
1560000125254860032,0.011868676705312442,-0.01810427528993408,0.012547955380459275,-0.9347701988073303,9.62690897896124,0.2829598000323613
1560000125264882688,0.018232843308831015,-0.035115573355761764,0.007260378617404029,-0.631823655414514,9.687711104856385,-0.012078817671949182
1560000125274905088,0.01611145444099149,-0.05744290508801875,0.009375409692434,-0.3885924155406808,9.844416194921415,-0.27077443366414394
1560000125284928256,0.01611145444099149,-0.07764382409729986,0.012547955380459275,-0.0199360850530379,9.927434417616436,-0.45780358888398254
1560000125294951424,0.012929372066530997,-0.08083344132277404,0.022065595218094147,0.5497152048412924,9.890946588107216,-0.5315777172437123
1560000125304974080,0.0023224281909827726,-0.08827588399419994,0.012547955380459275,0.7858502766249369,9.873583876080259,-0.5086960542558462
1560000125314996992,-0.0008596547630394663,-0.09571833410158437,0.0009152860857038758,0.8387594431983921,9.84783691194393,-0.4343405638557283
1560000125325020416,-0.008284515220916056,-0.0893390922146775,-0.00014222933624614964,0.48728502637220256,9.762700872923885,-0.24991184934546218
1560000125335043072,-0.008284515220916056,-0.08508627420468429,-0.0022572601801462006,0.3561372925266241,9.706097449434694,-0.1087555503060937
1560000125345065472,-0.010405903625106183,-0.08827588399419994,-0.004372291139611212,0.3803740849299224,9.669614546673683,0.0018888561577898033
1560000125355088640,-0.0019203490810468793,-0.07445420687182569,-0.0022572601801462006,0.21333531021206179,9.597140747917155,0.0033864694428640263
1560000125365111808,0.00020103955496794668,-0.07126458964635152,-0.005429806445996277,0.0671030843824576,9.575884508348938,-0.044133997043936765
1560000125375134464,0.007625899896932187,-0.05850611330849631,-0.004372291139611212,-0.041944696318042596,9.636678796947992,-0.1670521222083554
1560000125385157632,0.013990065573151966,-0.05637970058552044,0.0009152860857038758,0.08724598296228528,9.678354884484566,-0.3770005673304143
1560000125395180288,0.015050760007071728,-0.0500004661345721,0.0009152860857038758,0.267576158495136,9.723905781228702,-0.6082819268734012
1560000125405203456,0.017172148874911253,-0.046810845191118666,0.0009152860857038758,0.3887641407834118,9.809034732121466,-0.8295780063221652
1560000125415225856,0.013990065573151966,-0.0393683988017135,0.0030303169296039267,0.3535842245704483,9.844230409939428,-0.9643297242022401
1560000125425249024,0.008686594330851949,-0.03724198979671689,-0.00014222933624614964,0.20817594303800274,9.844230409939428,-1.0380862664733754
1560000125435271936,0.005504511492742059,-0.02342030709737375,-0.006487321983511263,0.31377939693402324,9.82024148951821,-1.0269605026100928
1560000125445295104,0.0023224281909827726,-0.027673132543325485,-0.003314775602096226,0.3572943086143467,9.791223639670394,-0.9956703459285275
1560000125455318272,-0.0008596547630394663,-0.010661831689013357,-0.00014222933624614964,0.2967066231512067,9.754742733918109,-0.9342056469603458
1560000125465340672,-0.004041737717061705,0.0020966432545996283,-0.001199744758196175,0.45524749098709416,9.727825988706188,-0.9210705647641007
1560000125475363584,-0.0019203490810468793,0.01379191183672468,-0.001199744758196175,0.6192193135831419,9.710297990272345,-0.9164935434707799
1560000125485386496,-0.0029810433990542923,0.042498481737909266,-0.004372291139611212,0.5465125551432894,9.722458343136548,-0.8919071138579627
1560000125495409408,-0.0008596547630394663,0.05632016257826278,-0.001199744758196175,0.4738034446465585,9.741746875586113,-0.8673198851330092
1560000125505432064,0.004443817058822297,0.07652107786956464,0.0019728016232188617,0.40109735367612315,9.766066757924872,-0.8427336748447538
1560000125515455232,0.004443817058822297,0.09246917886885253,-0.001199744758196175,0.3761901461054705,9.814372620205063,-0.8060234333604998
1560000125525478144,0.00020103955496794668,0.08927955420741984,-0.005429806445996277,0.3847105122961795,9.848926245556981,-0.7596497986300427
1560000125535500800,-0.004041737717061705,0.10629085599122678,-0.00014222933624614964,0.4452971262222455,9.86108612837642,-0.6981861579730209
1560000125545523968,-0.006163126353076531,0.11692292332408538,-0.003314775602096226,0.5916164975967502,9.815891361049715,-0.588403079317401
1560000125555546880,-0.008284515220916056,0.13287100945145625,-0.004372291139611212,0.702645084266147,9.75735438198379,-0.46547585242992523
1560000125565569536,-0.008284515220916056,0.15307193589669588,-0.001199744758196175,0.5572337481039473,9.708714300100684,-0.34254566607969117
1560000125575592704,-0.007223820786996293,0.17752568035192873,-0.003314775602096226,0.5325444464036638,9.702831555084744,-0.25562849114830166
1560000125585615616,-0.006163126353076531,0.1892209559052649,-0.001199744758196175,0.5931397273091965,9.72715479211058,-0.19415608679283786
1560000125595638528,-0.0019203490810468793,0.21261149214002018,-0.001199744758196175,0.3191239868864352,9.751474578198271,-0.1811833854015485
1560000125605661440,-0.004041737717061705,0.2115482839195426,-0.007544837521026249,0.31649902985177336,9.78518703906701,-0.16889001392169875
1560000125615684352,-0.006163126353076531,0.1828417065823995,-0.014947444896851625,0.752765382765858,9.833831343306134,-0.1565960799929278
1560000125625707264,-0.010405903625106183,0.15094551945574075,-0.025522598422962117,-0.5861494816418618,9.815486223177338,0.0010092052899638992
1560000125635729920,-0.012527292492945707,0.10735405677574583,-0.024465084734486497,-2.0898472342751413,9.758182371561794,0.20037979861661626
1560000125645719040,-0.012527292492945707,0.06907864263409724,-0.016004961358886294,-2.234782386665057,9.612739277338637,0.40867690916539834
1560000125655741952,-0.009345209654835818,0.033992830846005795,-0.00014222933624614964,-1.6908864810425894,9.559512629034113,0.48790968700791365
1560000125665764864,-0.004041737717061705,0.021234356367140217,0.007260378617404029,-0.6608131249524258,9.571673705093895,0.4756157602639797
1560000125675788288,0.005504511492742059,-0.0064090067078090285,0.006202863542148884,-0.4914759978075824,9.583834761403754,0.24500982373372424
1560000125685810688,0.007625899896932187,-0.020230688012909948,0.004087832467118913,-0.39952794923148865,9.63830467173167,-0.02658374599252189
1560000125695833344,0.013990065573151966,-0.025546719820349617,0.005145348004633898,-0.4116454446112742,9.759904701311127,-0.35849228631466024
1560000125705856512,0.018232843308831015,-0.026609924322847922,0.014662986455489246,0.2912008615094648,9.833691994376663,-0.6807806751314889
1560000125715879424,0.012929372066530997,-0.02129389437439788,0.013605471842493944,0.995629531565329,9.883143886221205,-0.9453321486841384
1560000125725902336,0.008686594330851949,-0.022357100735885815,0.009375409692434,0.862329910321803,9.883143886221205,-0.9699192710543157
1560000125735925248,0.0023224281909827726,-0.015977862566958212,-0.001199744758196175,0.5299654188082475,9.847469439705748,-0.8935243771736258
1560000125745948672,-0.007223820786996293,-0.005345800578694798,-0.001199744758196175,0.05741237607530114,9.786672917513668,-0.746018747946506
1560000125755971072,-0.005102432150981467,-0.001092975481303618,-0.001199744758196175,0.18261761174354676,9.73786652289118,-0.5742317705904949
1560000125765993728,-0.006163126353076531,0.00528626233906343,0.006202863542148884,0.23625541172465553,9.693927376692612,-0.43540110824739103
1560000125776016896,0.0023224281909827726,0.01379191183672468,0.0019728016232188617,0.16355126623733776,9.657447619689492,-0.3493517801944528
1560000125786039808,0.0012617339888877088,0.011665499113748812,-0.004372291139611212,-0.06163820009913221,9.66879247159242,-0.3309915881717398
1560000125796062720,0.003383122624902535,-0.001092975481303618,-0.00014222933624614964,-0.28302796327951996,9.69990825325985,-0.33557346259994814
1560000125806085632,0.0012617339888877088,-0.001092975481303618,-0.001199744758196175,-0.30726136887072175,9.76070398803352,-0.3601576896691824
1560000125816108800,0.004443817058822297,-0.014914657134965092,0.0030303169296039267,-0.27466567436141126,9.792989346695297,-0.34871017697376716
1560000125826131456,0.0012617339888877088,-0.01704106985794096,0.006202863542148884,-0.20196176408818545,9.80514983593219,-0.31183198683224844
1560000125836154112,0.0012617339888877088,-0.025546719820349617,0.0030303169296039267,-0.14120358213922268,9.80531790397174,-0.1900856592296784
1560000125846177280,0.00020103955496794668,-0.03192595798927722,0.0030303169296039267,-0.052514007769101596,9.786524943786523,-0.08138234809759315
1560000125856199936,0.0012617339888877088,-0.03405236885326346,0.006202863542148884,0.08082013303693261,9.737869498798766,0.004694887928348199
1560000125866223104,-0.0029810433990542923,-0.038305194299215195,0.008317894154919014,0.14739739946061675,9.70835589831313,0.061743962990953694
1560000125876246016,0.00020103955496794668,-0.032989162491775526,0.006202863542148884,0.1936078704812386,9.684033519689045,0.09484256394712895
1560000125886269184,0.00020103955496794668,-0.04043160702219106,0.0030303169296039267,0.22996371707802582,9.659711150630377,0.0579604451719556
1560000125896291584,0.004443817058822297,-0.038305194299215195,0.004087832467118913,0.2592050003119301,9.64966399884463,-0.0077771308156223545
1560000125906314496,0.004443817058822297,-0.027673132543325485,0.006202863542148884,0.28344129765879145,9.64966399884463,-0.09383210700873257
1560000125916337408,0.010807983198691473,-0.025546719820349617,0.0019728016232188617,0.2598401037391075,9.697669744063466,-0.22841805865048345
1560000125926360576,0.012929372066530997,-0.02129389437439788,-0.001199744758196175,0.2027758411569058,9.74631499478565,-0.34938167482054194
1560000125936383488,0.010807983198691473,-0.01810427528993408,-0.00014222933624614964,0.09370276499820102,9.794962192151187,-0.4477389669763939
1560000125946406400,0.008686594330851949,-0.014914657134965092,0.0030303169296039267,0.06094502996432439,9.824462315379614,-0.4880307161687367
1560000125956429056,0.004443817058822297,-0.024483513458861683,-0.00014222933624614964,0.05336413923856057,9.839676972693637,-0.5011103423018592
1560000125966452224,0.004443817058822297,-0.02129389437439788,0.0030303169296039267,0.06548365847060889,9.815353401942293,-0.4642254528238434
1560000125976474880,0.00020103955496794668,-0.02129389437439788,-0.001199744758196175,0.07760278356912634,9.791029909677725,-0.398454328857161
1560000125986498048,-0.004041737717061705,-0.02873633890481342,0.0019728016232188617,0.0897221226013526,9.766705487546014,-0.312390927076844
1560000125996520704,0.00020103955496794668,-0.027673132543325485,0.0019728016232188617,-0.0178243036380122,9.718370640703972,-0.21420596048704565
1560000126006543872,-0.004041737717061705,-0.03724198979671689,-0.0022572601801462006,-0.03766352228925879,9.683864819439847,-0.16826033158718112
1560000126016567040,-0.0019203490810468793,-0.02873633890481342,0.0030303169296039267,0.083538883282227,9.671702007415595,-0.2051473933717584
1560000126026589696,0.004443817058822297,-0.026609924322847922,0.0009152860857038758,0.14744925348496069,9.688281808156711,-0.3001426147481503
1560000126036612352,0.004443817058822297,-0.030862751627789287,0.0019728016232188617,0.20731288835941028,9.71489046229648,-0.42003499347457385
1560000126046635264,0.004443817058822297,-0.04149481152468937,0.0009152860857038758,0.3163885555454234,9.751376121687224,-0.5798694442883866
1560000126056658432,0.005504511492742059,-0.027673132543325485,-0.004372291139611212,0.3328033526964437,9.780708962922914,-0.6963154025533963
1560000126066681344,0.004443817058822297,-0.02873633890481342,-0.001199744758196175,0.28432858647046055,9.805032083153126,-0.7823742075936619
1560000126076704000,0.0012617339888877088,-0.020230688012909948,-0.008602353058541234,0.2119008526315333,9.793298886485514,-0.8076849047726374
1560000126086726912,-0.0008596547630394663,-0.01172503805050129,-0.005429806445996277,0.15330768818112794,9.776414160321213,-0.7988509809108724
1560000126096749824,-0.0008596547630394663,-0.0064090067078090285,-0.00014222933624614964,0.11695269929391362,9.75209236981557,-0.7373822227833422
1560000126106772992,-0.006163126353076531,0.001033437125485398,-0.003314775602096226,0.06148866949233967,9.737359123261223,-0.6662206268775867
1560000126116795648,0.0012617339888877088,0.006349468235803957,0.0019728016232188617,0.0397828389991502,9.727490951408186,-0.6063617649866728
1560000126126818560,0.00020103955496794668,0.008475880958779825,0.0019728016232188617,0.18553129724128944,9.727490951408186,-0.6063617649866728
1560000126136841472,-0.0019203490810468793,0.021234356367140217,-0.0022572601801462006,0.21627798764770545,9.734691723373404,-0.57724256134797
1560000126146831104,0.00020103955496794668,0.026550388174579886,0.0019728016232188617,0.16796106687112372,9.746812776949826,-0.5282262296112776
1560000126156853760,0.00020103955496794668,0.02761359453606782,0.0009152860857038758,0.14345728491130813,9.746946719234984,-0.4547340531022141
1560000126166876928,0.00020103955496794668,0.026550388174579886,-0.001199744758196175,0.08621360028478113,9.746946719234984,-0.37140161663265064
1560000126176899840,0.0012617339888877088,0.030803209902552364,-0.0022572601801462006,-0.022844882952095608,9.746946719234984,-0.27305746563664923
1560000126186922752,-0.0008596547630394663,0.01379191183672468,-0.00014222933624614964,-0.09365931120306806,9.746946719234984,-0.21351155160150068
1560000126196945408,-0.0019203490810468793,0.015918324559700547,-0.00014222933624614964,-0.1359152150235703,9.744646846304066,-0.1643367536189134
1560000126206968320,0.00020103955496794668,0.006349468235803957,-0.001199744758196175,-0.09955644922569482,9.732485291820685,-0.11515663546362637
1560000126216991488,-0.0008596547630394663,-0.003219387971905782,-0.001199744758196175,-0.09891066710787638,9.720323090581477,-0.08046768321593799
1560000126227014400,0.0012617339888877088,-0.010661831689013357,-0.001199744758196175,-0.12314983801050608,9.708160929567025,-0.05587762413829447
1560000126237037312,0.0012617339888877088,-0.014914657134965092,-0.00014222933624614964,-0.05144074684042359,9.720069947288637,-0.05562142285196492
1560000126247060224,0.00020103955496794668,-0.015977862566958212,-0.001199744758196175,-0.0023461526974038315,9.727490951408186,-0.06999985375412483
1560000126257083136,0.005504511492742059,-0.01704106985794096,0.0019728016232188617,0.009773077068764052,9.727490951408186,-0.1068838454978337
1560000126267105792,0.006565205463012425,-0.014914657134965092,0.006202863542148884,0.10806903951604828,9.727490951408186,-0.1631978304135869
1560000126277128960,0.004443817058822297,-0.022357100735885815,0.006202863542148884,0.21081858140597293,9.732121202315295,-0.22701865895878667
1560000126287151616,0.007625899896932187,-0.020230688012909948,0.0030303169296039267,0.2350557436133062,9.756442892635553,-0.3007826917372341
1560000126297174528,0.005504511492742059,-0.015977862566958212,-0.00014222933624614964,0.18057862602513158,9.766403457375873,-0.34551056222348175
1560000126307197696,0.0023224281909827726,-0.012788244411989225,-0.0022572601801462006,0.07150360435455777,9.766403457375873,-0.37010034541283365
1560000126317220352,0.003383122624902535,-0.013851450773477159,-0.0022572601801462006,0.09449383297260507,9.766403457375873,-0.345972772675841
1560000126327243008,0.0023224281909827726,-0.012788244411989225,0.0009152860857038758,0.11399568795952132,9.761652379956516,-0.3261886087757384
1560000126337266176,0.00020103955496794668,-0.015977862566958212,0.0019728016232188617,0.126114307426439,9.749491195427183,-0.31389457237730334
1560000126347289344,-0.004041737717061705,-0.01704106985794096,0.0009152860857038758,0.1573985995998009,9.727714068094059,-0.29187904620199545
1560000126357312000,-0.0029810433990542923,-0.010661831689013357,0.0009152860857038758,0.17294300798932477,9.708034213267297,-0.2743292932988547
1560000126367334912,0.0023224281909827726,-0.005345800578694798,-0.00014222933624614964,0.10023410296488011,9.708034213267297,-0.2866228640634413
1560000126377358080,0.003383122624902535,-0.00959862579227283,-0.001199744758196175,0.07048396915281341,9.715219659358995,-0.31344483237391063
1560000126387380480,0.005504511492742059,-0.0021561817266047,-0.001199744758196175,0.07048396915281341,9.727380446137964,-0.35032575444185454
1560000126397403392,0.0012617339888877088,-0.00959862579227283,-0.00014222933624614964,0.15455146049881163,9.751594000553132,-0.39939484011912585
1560000126407426560,0.0023224281909827726,-0.008535419430784896,0.0019728016232188617,0.17302041958981873,9.771160680330821,-0.4341472686740131
1560000126417449472,0.003383122624902535,-0.005345800578694798,-0.001199744758196175,0.08819084821340148,9.783321756390603,-0.446441195417947
1560000126427472384,0.0012617339888877088,-0.012788244411989225,0.0030303169296039267,0.04171881172724709,9.776238130822673,-0.4490073650979589
1560000126437495552,0.003383122624902535,-0.013851450773477159,-0.00014222933624614964,0.01000002660817292,9.76407728119509,-0.45371054460340815
1560000126447518464,-0.0019203490810468793,-0.01172503805050129,0.0019728016232188617,-0.0021188427723171574,9.75191584350526,-0.4782991484125836
1560000126457541120,-0.004041737717061705,-0.010661831689013357,-0.0022572601801462006,0.05743463496428877,9.739754657564504,-0.5101589606231064
1560000126467563776,0.0012617339888877088,-0.014914657134965092,-0.001199744758196175,0.1665034936526132,9.72759393483489,-0.5470415277898698
1560000126477586944,0.0012617339888877088,-0.01172503805050129,-0.00014222933624614964,0.15541043661136136,9.727490951408186,-0.5473538688601245
1560000126487609856,0.0023224281909827726,-0.010661831689013357,0.0030303169296039267,0.16227904207912602,9.73225423015936,-0.5473538688601245
1560000126497632768,0.0023224281909827726,-0.012788244411989225,-0.00014222933624614964,0.19863403332707735,9.744414518944234,-0.5473538688601245
1560000126507655936,-0.0008596547630394663,-0.007472213069296962,-0.001199744758196175,0.1870143954370298,9.746946719234984,-0.5473538688601245
1560000126517678848,0.0023224281909827726,0.0020966432545996283,0.0009152860857038758,0.1744008282394324,9.74927944502101,-0.5473538688601245
1560000126527701504,0.0023224281909827726,0.001033437125485398,0.0009152860857038758,0.21075494997401345,9.76144005099732,-0.5473538688601245
1560000126537723904,-0.0008596547630394663,0.014855118198212613,-0.00014222933624614964,0.2112488267340931,9.766403457375873,-0.5546298006708021
1560000126547747584,-0.004041737717061705,0.022297560869638522,-0.0022572601801462006,0.1870100885358577,9.766403457375873,-0.5669246047377036
1560000126557769984,-0.004041737717061705,0.02974000540005406,-0.00014222933624614964,0.16277314189390207,9.766403457375873,-0.5304371577344343
1560000126567793152,-0.006163126353076531,0.03186641812302993,-0.001199744758196175,0.15754270871534803,9.766403457375873,-0.46944819756905765
1560000126577816320,-0.006163126353076531,0.030803209902552364,-0.001199744758196175,0.18178175426235071,9.766403457375873,-0.37108853700372374
1560000126587838976,-0.007223820786996293,0.042498481737909266,0.0009152860857038758,0.22522291149320445,9.747132926326364,-0.25325317954379856
1560000126597861888,-0.006163126353076531,0.03824565629195753,-0.0022572601801462006,0.2573733334835888,9.725150426047456,-0.1516018165110552
1560000126607884800,-0.005102432150981467,0.049940924409335175,-0.001199744758196175,0.2210131527120474,9.712987794877483,-0.1393063128780077
1560000126617907712,0.0023224281909827726,0.05525695807576447,-0.001199744758196175,0.2062044225700319,9.722450945524068,-0.14887320995299522
1560000126627930624,-0.0019203490810468793,0.06269940074719038,0.0019728016232188617,0.2062044225700319,9.746774299352474,-0.1734629034009501
1560000126637953280,-0.0029810433990542923,0.06801543441361968,-0.0022572601801462006,0.24222372563956684,9.771043931566616,-0.22235814780241353
1560000126648011008,-0.0029810433990542923,0.07120505163909385,0.0009152860857038758,0.2643703330659335,9.785860195516761,-0.2523144035542604
1560000126658033920,-0.004041737717061705,0.0850267287614681,-0.00014222933624614964,0.2643703330659335,9.785860195516761,-0.2523144035542604
1560000126668057088,-0.007223820786996293,0.08715314520242323,0.0019728016232188617,0.4469768600375203,9.77621556826116,-0.2230644255180239
1560000126678080000,-0.006163126353076531,0.09246917886885253,-0.003314775602096226,0.6514788652512525,9.764054681698374,-0.18143433037873347
1560000126688102400,-0.008284515220916056,0.11054368143717852,-0.001199744758196175,0.748426611546454,9.751893641772886,-0.11996485056497405
1560000126698125568,-0.006163126353076531,0.1339342176719338,-0.005429806445996277,0.7159704470237481,9.739732522838903,-0.06578652545263662
1560000126708148480,-0.006163126353076531,0.1498823112352632,-0.001199744758196175,0.5947872058168975,9.727572234054028,-0.01661152565636069
1560000126718171392,-0.0029810433990542923,0.1722096392495409,-0.004372291139611212,0.4134091882819976,9.739570496331561,-0.028494947811452516
1560000126728194304,-0.0019203490810468793,0.18709453946430976,-0.008602353058541234,0.3794235859420876,9.76608245406687,-0.07464218389000368
1560000126738217472,-0.005102432150981467,0.18390491480287707,-0.004372291139611212,0.5732955555791885,9.814720077545255,-0.1729813619050495
1560000126748240384,-0.0029810433990542923,0.17752568035192873,-0.013889930283856322,0.49801280330714504,9.815127150080418,-0.20305840574555098
1560000126758263040,-0.007223820786996293,0.1573247539066891,-0.018119991509396582,0.2496202370523977,9.793573053566478,-0.21535043718457955
1560000126768285952,-0.009345209654835818,0.13074459301050112,-0.020235022584426554,-0.42893561491838894,9.732774904793319,-0.2276429161915244
1560000126778308864,-0.010405903625106183,0.12436535855955277,-0.017062475971881597,-0.4894419180194274,9.6719717545675,-0.20347967437246983
1560000126788331520,-0.009345209654835818,0.12542856678003034,-0.013889930283856322,-0.12588444713684965,9.611166619045997,-0.15430364373865185
1560000126798354944,-0.005102432150981467,0.128618176569546,-0.01177489920882635,0.15345433977256073,9.646989477509969,-0.17839090089751747
1560000126808377856,-0.0029810433990542923,0.12755498322098546,-0.01177489920882635,0.2224225438709294,9.673904801456743,-0.24166980187597695
1560000126818400256,0.0023224281909827726,0.13180780123097868,-0.016004961358886294,-0.03202003345730947,9.686063671963202,-0.3645868398881723
1560000126828423168,0.006565205463012425,0.1264917750005079,-0.016004961358886294,-0.3345750180638096,9.736813110964722,-0.448515202675499
1560000126838446336,0.005504511492742059,0.11479650688313026,-0.013889930283856322,-0.6098236396798321,9.781156190705095,-0.4985044993568106
1560000126848469248,0.004443817058822297,0.10948047321670096,-0.012832414746341336,-0.718883730126976,9.75683548497669,-0.44933167844802824
1560000126858492160,0.0023224281909827726,0.09140597064837497,-0.010717383671311365,-0.9358122479708666,9.746946719234984,-0.37827218269919977
1560000126868515328,0.003383122624902535,0.06695222619314212,-0.005429806445996277,-1.2266591340632367,9.746946719234984,-0.2922138895906817
1560000126878538240,-0.0008596547630394663,0.03824565629195753,-0.003314775602096226,-1.2405945601775934,9.698618632215805,-0.1817254947092693
1560000126888560896,0.0023224281909827726,0.018044737282676415,0.0019728016232188617,-1.1620863582326542,9.673907319635342,-0.09043494280644096
1560000126898583808,0.006565205463012425,-0.0064090067078090285,0.010432925229948986,-0.9439415298446049,9.686069046614586,-0.028961988996989887
1560000126908606720,0.004443817058822297,-0.02129389437439788,0.016778017530519218,-0.9566700313871237,9.717539466195642,-0.026042454392747567
1560000126918629632,0.007625899896932187,-0.051063666919091144,0.011490440767463972,-0.9564908096318363,9.749306531758263,-0.05026568349230284
1560000126928652544,0.007625899896932187,-0.07232779786682908,0.019950564143064176,-0.653546105551968,9.761466884622466,-0.12402489090744383
1560000126938675968,0.005504511492742059,-0.08083344132277404,0.02100807968057916,-0.3577783258929247,9.795302180841153,-0.15396791128725296
1560000126948698624,0.005504511492742059,-0.09146550865563263,0.02418062629312412,-0.06694530952402078,9.843944604746397,-0.15396791128725296
1560000126958721280,0.0012617339888877088,-0.10528718577800689,0.026295655519114725,0.24804941352950938,9.783771504680901,-0.08062462951154575
1560000126968744192,-0.0019203490810468793,-0.10103436033205515,0.022065595218094147,0.5010191709373354,9.742149311514638,0.007698412398579699
1560000126978767104,-0.0029810433990542923,-0.10528718577800689,0.022065595218094147,0.6585668672950857,9.729988299505735,0.11834873880138305
1560000126988790272,-0.0019203490810468793,-0.10954001865991714,0.013605471842493944,0.825734823074049,9.708164092627795,0.14107155018689177
1560000126998812928,0.00020103955496794668,-0.10316077677301028,0.016778017530519218,0.962361213692219,9.695678149474388,0.1338931832103623
1560000127008836352,0.0023224281909827726,-0.0872126832096809,0.009375409692434,0.962361213692219,9.732163049286582,0.0970090807830493
1560000127018858752,0.003383122624902535,-0.08083344132277404,0.0030303169296039267,0.8470446885896592,9.739714481063057,0.04550559176001523
1560000127028881664,0.004443817058822297,-0.05956932152897387,0.0019728016232188617,0.6531439320377188,9.727553722213854,-0.015965528114626718
1560000127038904320,0.005504511492742059,-0.0457476369706411,-0.001199744758196175,0.5195405668743684,9.751684575219953,-0.08965845539208413
1560000127048927744,0.006565205463012425,-0.038305194299215195,-0.0022572601801462006,0.3383913302650529,9.766403457375873,-0.1245908836618849
1560000127058950656,0.0012617339888877088,-0.024483513458861683,-0.004372291139611212,0.08390640451344716,9.766403457375873,-0.10000338376374693
1560000127068973568,0.00020103955496794668,-0.027673132543325485,-0.006487321983511263,0.07987629031091864,9.72773290938628,-0.09496001899242401
1560000127078996736,-0.0008596547630394663,-0.02873633890481342,-0.001199744758196175,0.1168241990678269,9.695697686358766,-0.09735939145631496
1560000127089019136,0.004443817058822297,-0.014914657134965092,-0.00014222933624614964,0.0562372331700836,9.732176945295345,-0.10965219100105404
1560000127099042048,0.00020103955496794668,-0.00959862579227283,-0.00014222933624614964,0.16154724172236826,9.754185419739786,-0.15853600945765275
1560000127109064960,0.0023224281909827726,-0.003219387971905782,0.004087832467118913,0.3797212898748486,9.76634877435915,-0.23231343254753511
1560000127119087616,0.003383122624902535,0.01379191183672468,0.0009152860857038758,0.1032155168183006,9.77851047011055,-0.24488438788066322
1560000127129110784,-0.0019203490810468793,0.01910794364416435,-0.00014222933624614964,0.0698000637712293,9.75682239638302,-0.2865622252738278
1560000127139133696,0.004443817058822297,0.021234356367140217,-0.00014222933624614964,0.4110565280986631,9.68343976712042,-0.3731113191883991
1560000127149068544,-0.0029810433990542923,0.04887771990683687,0.0019728016232188617,0.42940293323265205,9.707849728657779,-0.33127061375888667
1560000127159091456,0.0012617339888877088,0.04887771990683687,0.006202863542148884,0.4306725418671638,9.746946719234984,-0.2671557172866895
1560000127169114368,0.00020103955496794668,0.05632016257826278,0.0019728016232188617,0.6851801464532061,9.746946719234984,-0.24256603581435324
1560000127179137280,0.0012617339888877088,0.08396352054099054,-0.0022572601801462006,0.7589436885977177,9.76871309898322,-0.20330670258048206
1560000127189160192,-0.0029810433990542923,0.07652107786956464,-0.001199744758196175,0.71046462594636,9.80520073110046,-0.15412584595848608
1560000127199183104,-0.0019203490810468793,0.09884841331980088,-0.0022572601801462006,0.4565846691251987,9.79319275243486,-0.12945390351882982
1560000127209206016,0.00020103955496794668,0.10948047321670096,-0.004372291139611212,0.29352001863701493,9.78102949523554,-0.1292797404323779
1560000127219228928,-0.008284515220916056,0.11798612410860443,-0.003314775602096226,0.269283000604525,9.768868419175758,-0.16616153862627225
1560000127229252096,-0.004041737717061705,0.13180780123097868,-0.0022572601801462006,0.1290918080620901,9.766403457375873,-0.18343983609749914
1560000127239274752,-0.008284515220916056,0.1371238423333665,-0.003314775602096226,0.0025014983562724018,9.754396459706946,-0.1860235323794269
1560000127249297664,-0.005102432150981467,0.1466926865738305,0.0019728016232188617,0.050983467037411495,9.69358173982695,-0.14913570249329922
1560000127259320576,-0.006163126353076531,0.15307193589669588,-0.004372291139611212,0.012527925685534166,9.690930590209643,-0.09755174861719992
1560000127269343488,-0.006163126353076531,0.1541351292452564,0.0030303169296039267,-0.08442679247460985,9.727416313629544,-0.03607788199088392
1560000127279366144,-0.0019203490810468793,0.15838796212716666,0.004087832467118913,-0.0725307917205715,9.70321732966118,0.03766428324615603
1560000127289389056,-0.0019203490810468793,0.14775589479430806,0.007260378617404029,0.026448690572986586,9.707947173331696,0.062482104587604434
1560000127299411968,0.003383122624902535,0.15307193589669588,0.007260378617404029,0.2567380438744108,9.756598827920461,0.013298334599884096
1560000127309434880,-0.0029810433990542923,0.1520087276762183,0.005145348004633898,0.18703716558570022,9.766403457375873,-0.035877264150902415
1560000127319457792,-0.0029810433990542923,0.14137667521527675,0.005145348004633898,0.08491604803754227,9.768817252360076,-0.08261121616876715
1560000127329480704,0.00020103955496794668,0.13925025877432162,0.0019728016232188617,0.15762819619611332,9.780978509232193,-0.11949356272565466
1560000127339504128,-0.004041737717061705,0.14350307678431484,0.0030303169296039267,0.1432839045703782,9.79314135728114,-0.1269382755855775
1560000127349526784,-0.004041737717061705,0.13606063411288893,-0.0022572601801462006,0.0705652692755294,9.805304305680279,-0.11464306322647472
1560000127359549696,-0.006163126353076531,0.128618176569546,-0.003314775602096226,0.05837810762169717,9.74457598914049,-0.06550491438311723
1560000127369572352,-0.004041737717061705,0.13074459301050112,-0.006487321983511263,0.017243410011616764,9.71288718817105,-0.035952126697595066
1560000127379595520,-0.0029810433990542923,0.1264917750005079,-0.00014222933624614964,-0.06758818514482681,9.725048553511643,-0.035952126697595066
1560000127389618432,0.0023224281909827726,0.12436535855955277,0.0009152860857038758,-0.14273481887071837,9.70805301707923,-0.09490299127784911
1560000127399641344,0.004443817058822297,0.12436535855955277,0.0019728016232188617,-0.17197473448426426,9.700695687824423,-0.16131834502122974
1560000127409664512,0.0012617339888877088,0.12223894955455616,0.0019728016232188617,-0.02654482961156046,9.761503716211214,-0.19820211610936345
1560000127419686912,0.004443817058822297,0.11692292332408538,0.0019728016232188617,0.024442408366524105,9.778570391564575,-0.25719246141509244
1560000127429709568,0.003383122624902535,0.1084172649962234,0.0019728016232188617,0.012323826082464386,9.76640924316416,-0.33095649419353984
1560000127439732480,0.0023224281909827726,0.1137332986626527,0.0019728016232188617,0.024430805376477592,9.802868722518058,-0.3678558506698665
1560000127449755904,-0.004041737717061705,0.10735405677574583,-0.00014222933624614964,0.03170669674789384,9.80047142900677,-0.3605187974952588
1560000127459778816,-0.007223820786996293,0.09778520509932331,-0.001199744758196175,0.03170669674789384,9.73966545354762,-0.2867529956478
1560000127469801728,-0.0029810433990542923,0.08821634598694228,-0.001199744758196175,0.0026272020236133876,9.708036527754674,-0.19331586364361397
1560000127479824896,-0.005102432150981467,0.08821634598694228,-0.00014222933624614964,-0.03615799878346576,9.683711048331515,-0.10233033887928797
1560000127489847552,-0.0029810433990542923,0.08396352054099054,-0.00014222933624614964,-0.08463924771297889,9.659385279481278,-0.040851534616445404
1560000127499869952,-0.0008596547630394663,0.0775842860900422,0.004087832467118913,-0.1622156998831436,9.64966399884463,-0.023663383735294193
1560000127509893376,0.003383122624902535,0.07333146064409046,0.005145348004633898,-0.25912284628900295,9.649700444130945,-0.03600125169380909
1560000127519916288,0.005504511492742059,0.06163619252671282,0.0009152860857038758,-0.25912284628900295,9.722658700860865,-0.1343424762576807
1560000127529939200,0.005504511492742059,0.049940924409335175,0.0019728016232188617,-0.26397540816729864,9.776142917648384,-0.22284335609768507
1560000127539961856,0.008686594330851949,0.0403720690149334,-0.001199744758196175,-0.27609398454939293,9.800465820929784,-0.2966073936660524
1560000127549985280,0.006565205463012425,0.020171150005652283,0.006202863542148884,-0.24940691312009575,9.815052533919557,-0.3900579639801913
1560000127560007680,0.004443817058822297,0.010602293681755692,0.004087832467118913,-0.222776197441241,9.824772701484449,-0.4711424465302378
1560000127570030336,0.0023224281909827726,-0.001092975481303618,0.0009152860857038758,-0.23489434139326784,9.824772701484449,-0.4834360268743222
1560000127580053760,-0.0008596547630394663,-0.015977862566958212,0.007260378617404029,-0.2106192660377097,9.810164457777898,-0.45880956898739
1560000127590076928,-0.0019203490810468793,-0.02873633890481342,0.004087832467118913,-0.1622047465128603,9.78584341722966,-0.4096094225622518
1560000127600099584,-0.006163126353076531,-0.03617878157623933,0.0009152860857038758,-0.1985594229211371,9.761521843671721,-0.32355393454386444
1560000127610122496,-0.004041737717061705,-0.0500004661345721,0.0019728016232188617,-0.23005878827380838,9.722578668468278,-0.25720298673662867
1560000127620145664,-0.0019203490810468793,-0.05850611330849631,0.005145348004633898,-0.2542970941448415,9.661770640081487,-0.22031921804356885
1560000127630168320,-0.0029810433990542923,-0.07232779786682908,0.0030303169296039267,-0.18137085002137354,9.669170273235382,-0.24255486393756426
1560000127640190976,0.0023224281909827726,-0.0818966495432516,0.004087832467118913,-0.12863689850629625,9.693519401568164,-0.27947756589055467
1560000127650191872,-0.0008596547630394663,-0.09571833410158437,0.0019728016232188617,-0.24955030373851475,9.717787025839517,-0.31627667995255493
1560000127660214784,0.00020103955496794668,-0.10209756855253271,-0.00014222933624614964,-0.29790009980870025,9.742108307574995,-0.37532383051217766
1560000127670237696,-0.0008596547630394663,-0.11485604489038792,0.004087832467118913,-0.29787357953421456,9.766403457375873,-0.449034269289919
1560000127680260096,-0.0008596547630394663,-0.12442489656681044,0.0030303169296039267,-0.27363808434825687,9.766403457375873,-0.4736206066253107
1560000127690283520,-0.0008596547630394663,-0.13718337290466565,0.004087832467118913,-0.22023373078030184,9.76152524334703,-0.46861994553561637
1560000127700306432,-0.0019203490810468793,-0.1541946746884726,0.0030303169296039267,-0.12328997325715865,9.749364709691998,-0.41944641272163197
1560000127710329344,-0.005102432150981467,-0.1616371173598985,0.007260378617404029,-0.152555968808256,9.73720466190088,-0.3899708416864765
1560000127720352512,-0.0008596547630394663,-0.1743955862617952,0.004087832467118913,-0.20583292095365582,9.717704730476,-0.3703302111342346
1560000127730375168,0.0023224281909827726,-0.179711627364183,-0.00014222933624614964,-0.23006814679481796,9.669064042161013,-0.3703302111342346
1560000127740398336,0.00020103955496794668,-0.19247011113799672,0.0009152860857038758,-0.21787767550774573,9.671597306839278,-0.3629392286080867
1560000127750420736,0.00020103955496794668,-0.20097574715798316,0.0019728016232188617,-0.1815682939250749,9.708034213267297,-0.35072171702597477
1560000127760443904,0.004443817058822297,-0.20948139804988664,0.0030303169296039267,-0.1815682939250749,9.708034213267297,-0.3998964195521981
1560000127770466816,0.006565205463012425,-0.21692385559322958,0.0019728016232188617,-0.18643102065227887,9.732433240601422,-0.4638698878926508
1560000127780489728,0.005504511492742059,-0.2318087409360814,-0.00014222933624614964,-0.198549354215912,9.793237716865534,-0.5499261339437687
1560000127790512640,0.0023224281909827726,-0.23499835072559705,0.0030303169296039267,-0.20095693579310137,9.795571835653803,-0.6162834310090605
1560000127800535552,0.004443817058822297,-0.25094644428892643,0.005145348004633898,-0.12036164794289848,9.778507737986871,-0.6653696917669762
1560000127810558208,0.0012617339888877088,-0.2530728458579645,0.006202863542148884,0.2795515615291068,9.742024899266198,-0.6653696917669762
1560000127820580864,0.003383122624902535,-0.2530728458579645,0.006202863542148884,0.365964288180554,9.734806570029788,-0.64318195331229
1560000127830604288,0.005504511492742059,-0.2530728458579645,0.0030303169296039267,0.24504309599524862,9.746864559622468,-0.6064448232319224
1560000127840627200,-0.0008596547630394663,-0.2658313147598612,0.0019728016232188617,0.28140079001557733,9.698217968769963,-0.6556234932607296
1560000127850650112,0.005504511492742059,-0.2658313147598612,-0.00014222933624614964,0.3323667520686233,9.678894666429095,-0.694919682589594
1560000127860673024,0.0023224281909827726,-0.261578511621785,0.0030303169296039267,0.40507563466639973,9.703216095331575,-0.7195068049597715
1560000127870696192,0.004443817058822297,-0.2541360689503591,-0.00014222933624614964,0.4389138800625602,9.708034213267297,-0.8032407178084
1560000127880718592,0.006565205463012425,-0.24988323606844887,-0.005429806445996277,0.4337982324255989,9.71785184371817,-0.8991006920498387
1560000127890741504,0.005504511492742059,-0.24456720983797808,-0.006487321983511263,0.3126185284396695,9.766493371888389,-0.9851543792639891
1560000127900764672,0.006565205463012425,-0.23712476716655218,-0.003314775602096226,0.22790151091093036,9.793179943644564,-1.0490143979143176
1560000127910787584,0.004443817058822297,-0.2233030751722609,-0.0022572601801462006,0.16747442731126602,9.80531790397174,-1.0980702397581243
1560000127920810496,0.004443817058822297,-0.215860647372752,0.0009152860857038758,0.1917139728030519,9.80531790397174,-1.0857749950638895
1560000127930833664,0.005504511492742059,-0.2105446062703642,-0.001199744758196175,0.1964553301030278,9.795534325146216,-1.0438091204865303
1560000127940856320,-0.0019203490810468793,-0.20948139804988664,0.0009152860857038758,0.17221780280230511,9.771211060218222,-0.9577498034840704
1560000127950879232,-0.004041737717061705,-0.20522858003989342,-0.0022572601801462006,0.12853226067072276,9.746888191700473,-0.8519594981720303
1560000127960902144,-0.0019203490810468793,-0.20416537181941585,-0.001199744758196175,0.0702458989676933,9.725028995780784,-0.7512718809412091
1560000127970925056,-0.0008596547630394663,-0.20097574715798316,-0.00014222933624614964,-0.026686327280834782,9.712869908301897,-0.6898122987448175
1560000127980947968,-0.0019203490810468793,-0.19884933071702804,0.0019728016232188617,-0.021441462626871396,9.708034213267297,-0.6357503530093639
1560000127990970880,0.00020103955496794668,-0.20629178826037098,0.0009152860857038758,0.05100713203926446,9.708034213267297,-0.5866626199652276
1560000128000994304,0.0012617339888877088,-0.19459652757895185,0.0009152860857038758,0.014653656518682404,9.708034213267297,-0.5743693877610347
1560000128011016704,0.003383122624902535,-0.20203895537846073,0.0030303169296039267,-0.021697882325614815,9.72271265622441,-0.5769158588415451
1560000128021039616,0.0012617339888877088,-0.20203895537846073,0.006202863542148884,-0.058054276539931914,9.7591961457548,-0.6015043163714124
1560000128031062528,0.00020103955496794668,-0.2105446062703642,0.0009152860857038758,0.022293907042367972,9.77616321714814,-0.6162281428539621
1560000128041085440,-0.0029810433990542923,-0.2179870489417901,0.0009152860857038758,0.13137182565669592,9.78339483447185,-0.6085849927826383
1560000128051108352,-0.0019203490810468793,-0.20735499648084854,0.0009152860857038758,0.2404432788751761,9.771233215958931,-0.522523628601031
1560000128061131264,-0.0008596547630394663,-0.20948139804988664,-0.00014222933624614964,0.26914787041266824,9.751741411179728,-0.3994104060052514
1560000128071154432,-0.0029810433990542923,-0.20522858003989342,0.005145348004633898,0.24431353502068737,9.72742037213686,-0.25192197673194067
1560000128081177088,-0.004041737717061705,-0.20522858003989342,-0.0022572601801462006,0.014084441758716593,9.703100606497985,-0.11670198692312025
1560000128091200000,-0.0008596547630394663,-0.20735499648084854,-0.001199744758196175,-0.1331657384779177,9.688577475126408,-0.045856808653854865
1560000128101223168,0.0012617339888877088,-0.20629178826037098,-0.00014222933624614964,-0.15740118050963803,9.688577475126408,-0.07044306452543977
1560000128111245824,0.0023224281909827726,-0.21267102271131932,0.0019728016232188617,-0.016239494513557717,9.717867544555006,-0.15425218769595345
1560000128121268736,0.008686594330851949,-0.20416537181941585,0.005145348004633898,0.13356216020502804,9.751876256388332,-0.250086985114444
1560000128131291904,0.006565205463012425,-0.20948139804988664,0.006202863542148884,0.15776377206262493,9.776162877966533,-0.33601880474984325
1560000128141314560,0.005504511492742059,-0.20416537181941585,0.005145348004633898,0.11647548139172995,9.778555819453285,-0.3998668948267293
1560000128151361024,0.006565205463012425,-0.21267102271131932,0.0019728016232188617,0.03148877239115176,9.766476355790571,-0.4490073650979589
1560000128161384192,0.004443817058822297,-0.2137342309317969,0.0030303169296039267,-0.041221862191679726,9.790798969710828,-0.4490073650979589
1560000128171406848,0.003383122624902535,-0.2179870489417901,0.0009152860857038758,-0.040663387082635984,9.795514069607353,-0.4341413348727532
1560000128181429504,0.00020103955496794668,-0.2233030751722609,0.004087832467118913,0.0684145629083649,9.771188779349165,-0.39725571575940705
1560000128191452928,-0.0029810433990542923,-0.2286191162746487,0.0030303169296039267,0.109342821480796,9.756634155070516,-0.32086728862871106
1560000128201475584,0.003383122624902535,-0.2201134505108282,0.006202863542148884,0.12864987776019277,9.744473749013489,-0.24981429329651558
1560000128211498752,0.00020103955496794668,-0.23074553271560383,0.0030303169296039267,0.12864987776019277,9.732314255667093,-0.23752135350287926
1560000128221521664,0.0023224281909827726,-0.21905025716226767,0.005145348004633898,0.11402848535692249,9.742163335097452,-0.25489467844282904
1560000128231544576,-0.0008596547630394663,-0.215860647372752,0.004087832467118913,0.09018850980709119,9.766363830617948,-0.29185329424133444
1560000128241567232,0.00020103955496794668,-0.21479743915227445,0.005145348004633898,0.1871227532050819,9.754204490109725,-0.3533141937188482
1560000128251589888,-0.0019203490810468793,-0.2105446062703642,0.0009152860857038758,0.29383233663249547,9.756751165765674,-0.38999949962516567
1560000128261613056,-0.0008596547630394663,-0.19459652757895185,0.005145348004633898,0.4150149137299226,9.781072811611558,-0.38999949962516567
1560000128271636224,-0.006163126353076531,-0.18502765359465378,0.0009152860857038758,0.44860158304446035,9.766324771825094,-0.3702506506136486
1560000128281658880,-0.005102432150981467,-0.170142783123719,-0.001199744758196175,0.43608710214170077,9.746946719234984,-0.34566299922916033
1560000128291681792,-0.005102432150981467,-0.1584474926984658,-0.001199744758196175,0.32701887577243155,9.746946719234984,-0.32107477058621664
1560000128301705216,-0.007223820786996293,-0.13930978934562077,0.0009152860857038758,0.19601677261179276,9.732272021563352,-0.28165153268175125
1560000128311727616,-0.005102432150981467,-0.12655131300776556,0.0009152860857038758,0.051135403432714444,9.707953790810107,-0.23276706661381705
1560000128321750528,-0.004041737717061705,-0.11698246133134305,-0.0022572601801462006,0.0632545622704772,9.683630336851621,-0.26965083051672917
1560000128331773440,0.0012617339888877088,-0.09359191766062924,0.0009152860857038758,0.09981944509595421,9.678933574797224,-0.316453100684738
1560000128341796608,0.00020103955496794668,-0.08083344132277404,0.004087832467118913,0.17253116071706376,9.70325594385589,-0.3779233209963859
1560000128351819264,0.0012617339888877088,-0.06594855597992222,0.007260378617404029,0.2549766866062312,9.737348139772553,-0.4295123688452169
1560000128361842432,0.004443817058822297,-0.0446844324681428,0.0019728016232188617,0.3274704658666573,9.768879227799099,-0.47368229412645446
1560000128371865344,0.004443817058822297,-0.027673132543325485,0.005145348004633898,0.3517056728230464,9.781039399877846,-0.498268358217899
1560000128381888000,0.004443817058822297,-0.02129389437439788,0.0030303169296039267,0.3247470609784047,9.778521217443311,-0.49317696688490836
1560000128391910912,0.0012617339888877088,-0.0021561817266047,0.006202863542148884,0.26458076890577753,9.766403457375873,-0.46859126082005087
1560000128401933824,0.0012617339888877088,0.007412674597291891,0.0030303169296039267,0.32517476004991547,9.766403457375873,-0.44400282245020467
1560000128411956736,-0.004041737717061705,0.010602293681755692,0.0030303169296039267,0.3026278867830053,9.746773116551877,-0.3995705123989159
1560000128421979648,0.0012617339888877088,0.01910794364416435,0.004087832467118913,0.15721441239467168,9.698132311535966,-0.3258113097733814
1560000128432002560,-0.0029810433990542923,0.015918324559700547,0.0009152860857038758,0.10917534399606058,9.688577475126408,-0.2718094254306441
1560000128442025472,0.00020103955496794668,0.008475880958779825,0.0030303169296039267,0.05534986466818241,9.69105204667121,-0.2301435077463737
1560000128452048640,0.003383122624902535,0.007412674597291891,-0.003314775602096226,-0.11427800097993546,9.703210881143331,-0.21785183271074812
1560000128462071296,0.0023224281909827726,-0.003219387971905782,-0.001199744758196175,-0.26928711951842293,9.730040581915187,-0.25747010707381357
1560000128472094464,0.003383122624902535,-0.02342030709737375,-0.00014222933624614964,-0.41469883900458515,9.766481552370527,-0.33118895365321394
1560000128482117120,0.003383122624902535,-0.04255801974516693,-0.00014222933624614964,-0.5600937091022763,9.790799755224654,-0.3926471026177247
1560000128492140288,0.0023224281909827726,-0.06594855597992222,0.0009152860857038758,-0.5931788970544434,9.810217898534813,-0.4442001367240504
1560000128502163200,-0.0008596547630394663,-0.07764382409729986,0.0009152860857038758,-0.4598970909785377,9.822375773258116,-0.4810759051983178
1560000128512185856,-0.0029810433990542923,-0.09040230043515507,0.008317894154919014,-0.33633435965257463,9.77595971547342,-0.419259839774239
1560000128522209024,-0.005102432150981467,-0.10954001865991714,0.007260378617404029,-0.2323597099318721,9.717623737869562,-0.3282171189586878
1560000128532231936,-0.005102432150981467,-0.11910887033633966,0.008317894154919014,-0.19600600642932248,9.66898189251734,-0.21757731851105894
1560000128542254848,-0.0019203490810468793,-0.13930978934562077,0.006202863542148884,-0.13043605709076866,9.642333736094072,-0.18845789785359418
1560000128552277760,0.0023224281909827726,-0.1584474926984658,0.004087832467118913,-0.04584784617342308,9.630405109485018,-0.21344249798902862
1560000128562300416,0.0023224281909827726,-0.1743955862617952,0.0019728016232188617,-0.04584784617342308,9.703362715338528,-0.385538107455921
1560000128572323328,0.006565205463012425,-0.1871540700356089,0.0030303169296039267,0.007827660474446128,9.786120567603579,-0.5576491421115586
1560000128582346240,0.005504511492742059,-0.19565970605559535,0.005145348004633898,0.1411411795557278,9.883416409005408,-0.7297769890618717
1560000128592369152,0.00020103955496794668,-0.2105446062703642,-0.001199744758196175,0.21606663603942686,9.883076491808094,-0.7538474554126993
1560000128602392320,-0.005102432150981467,-0.19884933071702804,0.0030303169296039267,0.25208543418476015,9.851359099621762,-0.7091512549100311
1560000128612415232,-0.010405903625106183,-0.19778612249655048,0.0030303169296039267,0.19149828448207978,9.790559143128428,-0.5370514989484463
1560000128622438144,-0.009345209654835818,-0.19459652757895185,0.005145348004633898,0.17472991899369808,9.715104894366435,-0.37977491442787775
1560000128632460800,-0.009345209654835818,-0.19247011113799672,0.006202863542148884,0.1866010386252254,9.630238048060516,-0.23248949654398093
1560000128642483712,-0.006163126353076531,-0.18821727825608647,0.0030303169296039267,0.10142955467764628,9.642448139489032,-0.1707720726299648
1560000128652441344,-0.004041737717061705,-0.19247011113799672,0.005145348004633898,0.07548354504879738,9.669243099130501,-0.16398811061879803
1560000128662464256,0.0012617339888877088,-0.18609086181513135,0.0030303169296039267,0.1360742931373546,9.71788595693546,-0.23774951365244723
1560000128672486656,0.0012617339888877088,-0.179711627364183,0.0030303169296039267,0.13831363893682735,9.747008529483207,-0.3016426392642348
1560000128682509568,0.003383122624902535,-0.17758521092322788,-0.00014222933624614964,0.1041038711472003,9.766403457375873,-0.3606214209889457
1560000128692532736,0.0012617339888877088,-0.17120597647227953,-0.00014222933624614964,-0.01706969837020267,9.766403457375873,-0.409792468327445
1560000128702555648,0.005504511492742059,-0.16588995024180875,0.005145348004633898,-0.02142697396377275,9.766403457375873,-0.46637447852340896
1560000128712578560,0.0023224281909827726,-0.1722691846927571,0.005145348004633898,0.05106333707418882,9.766435565636487,-0.5276845803691934
1560000128722601728,-0.0019203490810468793,-0.1765220027027503,0.0019728016232188617,0.038945259290691064,9.778596207764297,-0.5276845803691934
1560000128732624384,-0.0029810433990542923,-0.18077483558466056,0.0019728016232188617,0.07074111065744082,9.790756879529205,-0.5078848458293481
1560000128742647296,-0.005102432150981467,-0.1722691846927571,0.0019728016232188617,0.1676906395681962,9.802918742887302,-0.45870836938361037
1560000128752669952,-0.009345209654835818,-0.18290123715369866,0.0009152860857038758,0.1284501184878181,9.766270783928778,-0.34045470472019745
1560000128762693120,-0.006163126353076531,-0.17120597647227953,0.004087832467118913,0.06311139829316981,9.7250247958185,-0.21270033213708744
1560000128772715776,-0.006163126353076531,-0.17864841914370544,0.0019728016232188617,0.02675619198258946,9.712863828231496,-0.11434974156191384
1560000128782738944,-0.004041737717061705,-0.17758521092322788,0.0030303169296039267,0.01962422008618463,9.693370568902058,-0.0827026414025758
1560000128792762112,-0.0008596547630394663,-0.179711627364183,0.004087832467118913,0.03170669674789384,9.669266524026886,-0.09514424594547169
1560000128802784768,0.0012617339888877088,-0.18077483558466056,0.004087832467118913,0.03170669674789384,9.717906172002786,-0.1566087908043486
1560000128812807680,0.0012617339888877088,-0.18396444537417622,0.0030303169296039267,0.0414733712630346,9.751847209051908,-0.21807663907143887
1560000128822830592,-0.0029810433990542923,-0.18396444537417622,-0.00014222933624614964,0.0657113285603497,9.764008755209137,-0.2795486776961305
1560000128832853504,0.0023224281909827726,-0.18077483558466056,0.0019728016232188617,0.021825736035702606,9.7761692860837,-0.321270550553222
1560000128842876416,-0.0019203490810468793,-0.19247011113799672,0.0019728016232188617,-0.01661528029682239,9.780920941494674,-0.34566767835637896
1560000128852899328,-0.0029810433990542923,-0.18928048647656404,0.005145348004633898,0.03185948120754628,9.756598427750442,-0.32107944971343527
1560000128862922240,-0.0029810433990542923,-0.18821727825608647,-0.00014222933624614964,0.0803333732825435,9.739611900549523,-0.2816610244749594
1560000128872945152,-0.0029810433990542923,-0.19247011113799672,0.0019728016232188617,0.12857146995396218,9.727490951408186,-0.23268488644654023
1560000128882968064,0.00020103955496794668,-0.19459652757895185,0.0009152860857038758,0.10433480990890696,9.727490951408186,-0.24497863040833404
1560000128892990976,-0.0019203490810468793,-0.19884933071702804,0.004087832467118913,0.0898726053552732,9.732395098403657,-0.26223034421486163
1560000128903013888,0.0023224281909827726,-0.20416537181941585,0.004087832467118913,0.0898726053552732,9.744554664050522,-0.28681637956909434
1560000128913036800,0.0012617339888877088,-0.1999125389375056,-0.00014222933624614964,0.03147149431068622,9.746946719234984,-0.321276247495287
1560000128923059712,-0.0019203490810468793,-0.20416537181941585,0.0009152860857038758,-0.016608929024774635,9.749417939641198,-0.3556573291743024
1560000128933082624,0.0023224281909827726,-0.20629178826037098,0.006202863542148884,0.03186871556529923,9.761579919816425,-0.3802470298076285
1560000128943105536,-0.0029810433990542923,-0.20841818982940907,0.0030303169296039267,0.05109533295035362,9.75906599666669,-0.38258188263126175
1560000128953128448,-0.005102432150981467,-0.20522858003989342,0.004087832467118913,0.05105440554823159,9.746905650124958,-0.3701641316847249
1560000128963151360,-0.0029810433990542923,-0.20097574715798316,0.0030303169296039267,0.03893758875097561,9.734746879804778,-0.3209952580411587
1560000128973174272,-0.007223820786996293,-0.21160781449084176,0.0030303169296039267,0.02682084228332881,9.717684919677138,-0.2767832590316382
1560000128983197184,-0.007223820786996293,-0.21479743915227445,0.0030303169296039267,0.014703773329529664,9.693365660167874,-0.23990585553605553
1560000128993220352,-0.004041737717061705,-0.2137342309317969,0.0009152860857038758,-0.01687687171776742,9.708109128087022,-0.24251762591291834
1560000129003243008,-0.0019203490810468793,-0.21267102271131932,0.004087832467118913,-0.03354743893212733,9.732428273193051,-0.25980148164855205
1560000129013266176,0.0012617339888877088,-0.215860647372752,0.0030303169296039267,0.02704655221201059,9.756750397382849,-0.2966841583633425
1560000129023288832,0.0023224281909827726,-0.2201134505108282,0.004087832467118913,0.058402494931608,9.766403457375873,-0.3261481731003131
1560000129033311744,0.0023224281909827726,-0.215860647372752,0.005145348004633898,0.0705191305640289,9.766368172461371,-0.35055388080634803
1560000129043334656,0.0023224281909827726,-0.2179870489417901,0.008317894154919014,0.08263511881065395,9.754209627209862,-0.3136797567853594
1560000129053357568,-0.0008596547630394663,-0.2233030751722609,0.006202863542148884,0.07523688269209816,9.74205125333529,-0.27680541591449215
1560000129063380480,-0.0008596547630394663,-0.22117665873130576,0.0030303169296039267,0.03888837763879782,9.729893133706458,-0.23993075333663863
1560000129073403392,0.00020103955496794668,-0.22755590805417114,0.004087832467118913,0.021984566546809064,9.727490951408186,-0.24250797399134766
1560000129083426560,-0.004041737717061705,-0.22968232449512627,0.004087832467118913,0.014767830998972739,9.732407579189395,-0.2572848677021992
1560000129093449216,0.00020103955496794668,-0.23287194915655895,0.004087832467118913,0.026883531037309137,9.756723484914867,-0.28186702909644057
1560000129103472384,-0.0019203490810468793,-0.2286191162746487,0.004087832467118913,0.017118598457677964,9.759083787769775,-0.2990526331652949
1560000129113495040,0.0023224281909827726,-0.23074553271560383,0.004087832467118913,-0.007048379752980692,9.746968991208416,-0.31129978438513667
1560000129123517952,0.00020103955496794668,-0.2318087409360814,0.0030303169296039267,0.005068688020572773,9.759128620963049,-0.29900731016751353
1560000129133541120,-0.0019203490810468793,-0.23499835072559705,0.0019728016232188617,0.01718843382120737,9.7615159770763,-0.2916529958630001
1560000129143563776,0.00020103955496794668,-0.2318087409360814,0.006202863542148884,0.029311161736830484,9.74935066848293,-0.2916529958630001
1560000129153580032,-0.0019203490810468793,-0.2339351425051195,0.006202863542148884,0.05113684049693358,9.766445110716326,-0.31136440040590213
1560000129163602688,-0.005102432150981467,-0.24456720983797808,0.005145348004633898,0.07048396915281341,9.783407745717346,-0.3384293169194858
1560000129173625344,0.00020103955496794668,-0.2392511836075073,0.006202863542148884,0.07048396915281341,9.771247320538317,-0.3753091519156815
1560000129183648000,-0.004041737717061705,-0.24456720983797808,0.0009152860857038758,0.05590278776803282,9.77371965602507,-0.3826033769633908
1560000129193671424,-0.004041737717061705,-0.2488200278479713,0.007260378617404029,0.03168709771025793,9.78584052763816,-0.3702904456167461
1560000129203694336,-0.006163126353076531,-0.2488200278479713,0.0019728016232188617,0.019570569134143664,9.77368144015927,-0.3457065840035408
1560000129213717248,-0.010405903625106183,-0.2530728458579645,0.004087832467118913,0.002589152822054193,9.761521917282128,-0.32112184977077807
1560000129223740160,-0.007223820786996293,-0.24775681962749374,0.006202863542148884,-0.02164606593731804,9.749361745203382,-0.2965358144165453
1560000129233763328,-0.008284515220916056,-0.25838890183226937,0.006202863542148884,-0.007035696232388908,9.737201335225638,-0.2522436310730562
1560000129243785984,-0.009345209654835818,-0.25838890183226937,0.007260378617404029,0.024524246658083726,9.722591327338924,-0.20554607699403343
1560000129253808640,-0.006163126353076531,-0.2626417347141796,0.004087832467118913,0.08512130121520224,9.698267366988468,-0.16866153801966294
1560000129263831808,-0.006163126353076531,-0.2647681214113007,0.004087832467118913,0.10197104629788378,9.695893275771551,-0.1835508112561579
1560000129273854720,-0.006163126353076531,-0.2573256787398748,0.0019728016232188617,0.0899648429853797,9.708071236985157,-0.23273868786164845
1560000129283877376,-0.0029810433990542923,-0.2647681214113007,0.0030303169296039267,0.15055055383565116,9.732390034664034,-0.29420139560759895
1560000129293900800,-0.0029810433990542923,-0.2647681214113007,0.005145348004633898,0.1624906416638647,9.751828837847347,-0.35073340817442855
1560000129303923456,-0.0029810433990542923,-0.2647681214113007,0.004087832467118913,0.10190403009833916,9.763988720666784,-0.39990431878427746
1560000129313946368,-0.0008596547630394663,-0.25838890183226937,0.0030303169296039267,0.0898726053552732,9.766403457375873,-0.4195208310483267
1560000129323969024,-0.004041737717061705,-0.2573256787398748,0.0030303169296039267,0.08011329242041035,9.763955059326806,-0.42933807660702783
1560000129333992192,-0.0029810433990542923,-0.25838890183226937,0.007260378617404029,0.03164530473208977,9.751795501856902,-0.42933807660702783
1560000129344015104,-0.0019203490810468793,-0.2541360689503591,0.006202863542148884,0.041465017068194485,9.739634750344507,-0.42194586125866224
1560000129354038016,-0.008284515220916056,-0.2573256787398748,0.006202863542148884,0.08989047798685357,9.727473015997836,-0.40966878811609675
1560000129364061184,-0.0019203490810468793,-0.25626248539131424,0.005145348004633898,0.10200927527134984,9.715311650657242,-0.40966878811609675
1560000129374083840,-0.0029810433990542923,-0.25519926229891965,0.004087832467118913,0.11899389802163644,9.712917635262544,-0.40966878811609675
1560000129384106752,-0.0029810433990542923,-0.2488200278479713,0.004087832467118913,0.14323127877382077,9.725078892134661,-0.40966878811609675
1560000129394129664,-0.004041737717061705,-0.24988323606844887,0.0030303169296039267,0.14803851207413032,9.727490951408186,-0.41952507396005656
1560000129404152576,-0.0019203490810468793,-0.23818797538702974,0.0009152860857038758,0.1455925195951128,9.727490951408186,-0.42933807660702783
1560000129414175488,-0.0029810433990542923,-0.2392511836075073,0.004087832467118913,0.13347383039942426,9.727490951408186,-0.42933807660702783
1560000129424198400,-0.0008596547630394663,-0.2318087409360814,0.0030303169296039267,0.15053149040632913,9.734810075554963,-0.4515364355325222
1560000129434221312,0.00020103955496794668,-0.23287194915655895,0.004087832467118913,0.18681579581018326,9.746991845028894,-0.4884372102882157
1560000129444244224,-0.0008596547630394663,-0.2233030751722609,0.0030303169296039267,0.18681579581018326,9.77131291233896,-0.5376107431022
1560000129454267136,-0.0008596547630394663,-0.22223986695178333,0.005145348004633898,0.16733751332381458,9.780973521404634,-0.5670231573510556
1560000129464290048,-0.007223820786996293,-0.21479743915227445,0.004087832467118913,0.11886663634222706,9.76881324085096,-0.5670231573510556
1560000129474313216,-0.004041737717061705,-0.20416537181941585,0.0030303169296039267,0.13841467881256003,9.746900049991073,-0.5177307286049573
1560000129484335872,-0.007223820786996293,-0.21160781449084176,0.0009152860857038758,0.16742714638806788,9.725034232646868,-0.45625887068315907
1560000129494358784,-0.007223820786996293,-0.1999125389375056,0.0030303169296039267,0.16742714638806788,9.712872433305483,-0.3947855810489124
1560000129504381696,-0.007223820786996293,-0.19140690291751916,0.0030303169296039267,0.18932098079401521,9.708034213267297,-0.3703302111342346
1560000129514404608,-0.0029810433990542923,-0.18821727825608647,0.007260378617404029,0.22556450569151415,9.708062857178192,-0.3703881247827424
1560000129524427520,-0.0029810433990542923,-0.18821727825608647,0.005145348004633898,0.21344383889065646,9.720226103340918,-0.3949803658900112
1560000129534450432,0.0012617339888877088,-0.1765220027027503,0.0009152860857038758,0.1964419199598576,9.732389103184003,-0.41957260288286463
1560000129544473344,0.004443817058822297,-0.17333237804131763,0.0019728016232188617,0.17220201403409313,9.744551019343923,-0.4441633812763533
1560000129554496256,0.0023224281909827726,-0.16482674202133119,-0.001199744758196175,0.17715865828541497,9.756712406085025,-0.4687521198715645
1560000129564519424,0.003383122624902535,-0.16057390913942093,0.0019728016232188617,0.17204514758458203,9.766403457375873,-0.485848559925137
1560000129574542080,0.003383122624902535,-0.1510050500270399,0.008317894154919014,0.0993368911316752,9.766403457375873,-0.47355508924115963
1560000129584565248,0.003383122624902535,-0.15206825824751746,0.0019728016232188617,0.07779387618119586,9.759067874542696,-0.4612609349853867
1560000129594588160,-0.0029810433990542923,-0.14568903866848615,0.0019728016232188617,0.08983282196673793,9.746946719234984,-0.4488862873277523
1560000129604610816,0.0012617339888877088,-0.14568903866848615,0.005145348004633898,0.07771359102011378,9.746946719234984,-0.4120023135472043
1560000129614633984,-0.004041737717061705,-0.15525788290895015,0.0030303169296039267,0.07048396915281341,9.751853573324397,-0.3800785762745555
1560000129624656640,0.0023224281909827726,-0.14037299756609833,0.0030303169296039267,0.07048396915281341,9.7640145409114,-0.3554909229428168
1560000129634679552,-0.0008596547630394663,-0.14462583044800859,0.006202863542148884,0.08023428206488198,9.737050263651637,-0.30120362093478814
1560000129644683008,-0.0008596547630394663,-0.14568903866848615,0.0019728016232188617,0.08740355083277672,9.710511940261508,-0.24730481199992174
1560000129654705664,0.003383122624902535,-0.14994184180656234,0.0019728016232188617,0.07528514872924993,9.722672907848512,-0.22271716345803172
1560000129664728576,0.004443817058822297,-0.15206825824751746,0.007260378617404029,0.07780082722493578,9.734833143524554,-0.22782135278661594
1560000129674751744,0.00020103955496794668,-0.15738429934990528,0.005145348004633898,0.08964201473505191,9.746992999348302,-0.2523611892432942
1560000129684774656,0.00020103955496794668,-0.1541946746884726,0.0009152860857038758,0.02905577046328834,9.759152809872266,-0.2646538366263741
1560000129694797568,-0.0008596547630394663,-0.15738429934990528,-0.001199744758196175,-0.021748259230938358,9.771313204316417,-0.26205692751850074
1560000129704820736,0.00020103955496794668,-0.1616371173598985,-0.00014222933624614964,-0.058105193996479315,9.783474750473648,-0.23746812356480773
1560000129714843392,0.0012617339888877088,-0.16907957490324144,0.0019728016232188617,-0.08471909264937535,9.766309153233234,-0.18323352909619328
1560000129724866048,-0.0008596547630394663,-0.17545879448227275,0.007260378617404029,-0.10154293697830867,9.746946719234984,-0.1317920276585691
1560000129734889216,0.0012617339888877088,-0.179711627364183,0.006202863542148884,-0.08942378404279211,9.746946719234984,-0.11949743689667888
1560000129744912128,-0.0019203490810468793,-0.18609086181513135,0.0019728016232188617,-0.048021334703065334,9.739600613358194,-0.10720258646880744
1560000129754935040,0.0023224281909827726,-0.19778612249655048,0.005145348004633898,0.012473743933775166,9.727490951408186,-0.09490737332689277
1560000129764957952,0.0012617339888877088,-0.20416537181941585,0.008317894154919014,0.04883359928084243,9.727490951408186,-0.08261197814207202
1560000129774981120,0.0012617339888877088,-0.2105446062703642,0.005145348004633898,0.05577624315792308,9.732410501520404,-0.07529072092219447
1560000129785003776,0.0012617339888877088,-0.21160781449084176,0.0019728016232188617,0.01942373931424954,9.744569958694527,-0.07529072092219447
1560000129795026432,0.005504511492742059,-0.2201134505108282,0.0009152860857038758,-0.04618079792462303,9.746946719234984,-0.07529072092219447
1560000129805049600,-0.0019203490810468793,-0.22436628339273845,0.0030303169296039267,-0.09905432832523647,9.749435143078026,-0.08283754864934569
1560000129815072512,0.003383122624902535,-0.22755590805417114,0.0030303169296039267,-0.0748198277838993,9.761594953601987,-0.11971550875880871
1560000129825095424,0.0023224281909827726,-0.2318087409360814,0.005145348004633898,-0.021272569133910707,9.773756513135734,-0.16403215780108216
1560000129835118336,0.0023224281909827726,-0.2392511836075073,0.006202863542148884,0.05091892326046993,9.7858011857405,-0.21315476689395432
1560000129845141760,-0.0019203490810468793,-0.24456720983797808,0.004087832467118913,0.014563826336938826,9.773640254349079,-0.25003612274899484
1560000129855164416,-0.0019203490810468793,-0.2530728458579645,0.007260378617404029,-0.02179020818558077,9.761479678335222,-0.26202855673783904
1560000129865187072,-0.004041737717061705,-0.2594520951808299,0.005145348004633898,-0.058147359258407506,9.749318059822304,-0.23743960649190554
1560000129875209984,-0.0008596547630394663,-0.2626417347141796,0.004087832467118913,-0.055481051369723484,9.737157511759596,-0.21285181801300876
1560000129885233152,-0.004041737717061705,-0.27114737073416606,0.0009152860857038758,-0.04336250816600775,9.724996883490926,-0.195827822158808
1560000129895255808,-0.005102432150981467,-0.26795773120081634,0.0019728016232188617,-0.03124482791134231,9.712836639103802,-0.20812091293424437
1560000129905278976,-0.0008596547630394663,-0.2732737871751212,0.004087832467118913,-0.01912613362703138,9.722751515696837,-0.24273271602732258
1560000129915301632,0.00020103955496794668,-0.2807162298465471,0.005145348004633898,-0.006693479625140906,9.746883652599251,-0.29178051345538847
1560000129925324544,0.00020103955496794668,-0.2775265903131974,0.006202863542148884,0.06602514740614546,9.734721917280291,-0.3163709357783991
1560000129935347456,-0.0029810433990542923,-0.28709547916941247,0.0030303169296039267,0.10434734202920323,9.737353021533668,-0.3359766193011083
1560000129945370624,-0.0019203490810468793,-0.2817794231951076,0.004087832467118913,0.09222764377247597,9.761676953952284,-0.3482717620807299
1560000129955393536,-0.004041737717061705,-0.2892218956103676,0.0030303169296039267,0.09963712209375424,9.766403457375873,-0.38037848736531144
1560000129965416448,-0.0019203490810468793,-0.29241150539988325,0.004087832467118913,0.10177459874850434,9.763899144795428,-0.40460544746160837
1560000129975439616,-0.0019203490810468793,-0.2817794231951076,0.0030303169296039267,0.06541387967427861,9.751736332771175,-0.3800140841165654
1560000129985462272,-0.005102432150981467,-0.28709547916941247,0.005145348004633898,0.058442147367199215,9.724829227337185,-0.340517546984157
1560000129995485184,-0.0008596547630394663,-0.2775265903131974,0.007260378617404029,0.0710308872624947,9.688577475126408,-0.2916529958630001
1560000130005507840,0.0012617339888877088,-0.27008414764177147,0.005145348004633898,0.15587181129530434,9.688577475126408,-0.2916529958630001
1560000130015530752,0.0023224281909827726,-0.2722105640827266,0.004087832467118913,0.2209926004537494,9.698470888715615,-0.3166567408310957
1560000130025553920,0.006565205463012425,-0.25519926229891965,0.007260378617404029,0.2573511593303787,9.722795065994418,-0.3781315310795745
1560000130035576832,0.0023224281909827726,-0.2594520951808299,0.0009152860857038758,0.22525405593418985,9.747117299797104,-0.45944389276917313
1560000130045600000,0.0023224281909827726,-0.25094644428892643,0.004087832467118913,0.1692488610673454,9.77647696411251,-0.5429599206969679
1560000130055622656,0.0023224281909827726,-0.252009652509404,0.0030303169296039267,0.08441499516046228,9.825123727604149,-0.6167272678191946
1560000130065645568,-0.0008596547630394663,-0.2488200278479713,0.0019728016232188617,0.03637816411872823,9.822077116344502,-0.6457004032760452
1560000130075668480,0.0023224281909827726,-0.2530728458579645,0.004087832467118913,0.012053410599617143,9.785771669007243,-0.6452529348796483
1560000130085691392,-0.0008596547630394663,-0.24988323606844887,0.0030303169296039267,-0.02430482166246444,9.773609688832016,-0.5837786737158381
1560000130095714304,-0.0029810433990542923,-0.24669361140701618,0.006202863542148884,-0.021155832934206156,9.751536458363473,-0.5223044203597246
1560000130105737216,-0.0019203490810468793,-0.24350400161750052,0.007260378617404029,0.03944122162291236,9.715051124359839,-0.4608301783569042
1560000130115760640,-0.0008596547630394663,-0.23287194915655895,0.004087832467118913,0.10983119688342761,9.708034213267297,-0.4291453408017028
1560000130125783040,-0.0008596547630394663,-0.2286191162746487,0.007260378617404029,0.1952007206261284,9.710567952242956,-0.4224758870191933
1560000130135805952,0.0012617339888877088,-0.21905025716226767,0.0019728016232188617,0.3287903416094036,9.722755120755282,-0.4840774466058383
1560000130145797376,0.0023224281909827726,-0.20735499648084854,0.0030303169296039267,0.4396787365873031,9.73488855206094,-0.5528880248803554
1560000130155820032,0.0012617339888877088,-0.1967229142760729,0.006202863542148884,0.5349855518100777,9.746946719234984,-0.6260310534776039
1560000130165842944,0.0012617339888877088,-0.18183804380513813,0.0019728016232188617,0.4380302720737205,9.746946719234984,-0.6260310534776039
1560000130175865856,0.0012617339888877088,-0.17545879448227275,0.0019728016232188617,0.36584130186218233,9.741975952959388,-0.6210057346741485
1560000130185888768,0.003383122624902535,-0.16270032558037606,0.0019728016232188617,0.32948146422301217,9.72981403679947,-0.6087103454774042
1560000130195911680,0.00020103955496794668,-0.1488786484580018,0.0030303169296039267,0.22448305369199018,9.737330221096824,-0.5765199921552462
1560000130205934592,0.006565205463012425,-0.14356262222753102,0.0019728016232188617,0.12611304121974878,9.746946719234984,-0.5499274260916424
1560000130215957504,0.005504511492742059,-0.13399374824323296,0.005145348004633898,0.11399416947841638,9.746946719234984,-0.5622217184161624
1560000130225980672,0.00020103955496794668,-0.12442489656681044,0.0019728016232188617,0.10926123966921075,9.769185799521512,-0.5969987282896904
1560000130236003328,0.003383122624902535,-0.1276145137922846,0.004087832467118913,0.10984935943522171,9.80531790397174,-0.6458197298444406
1560000130246025984,0.0023224281909827726,-0.11698246133134305,0.004087832467118913,0.17044587591455676,9.80531790397174,-0.6581144609282846
1560000130256049152,0.0023224281909827726,-0.11485604489038792,0.005145348004633898,0.23104453565961697,9.795346709886742,-0.6603297564675307
1560000130266072320,-0.004041737717061705,-0.10954001865991714,0.004087832467118913,0.2916421306393742,9.771021926080477,-0.6480348060822991
1560000130276094976,-0.0019203490810468793,-0.10528718577800689,0.006202863542148884,0.3129654606185222,9.726994615631947,-0.5759806180740097
1560000130286118144,-0.0029810433990542923,-0.10209756855253271,0.006202863542148884,0.31998712251073735,9.688577475126408,-0.4976711543443859
1560000130296140800,-0.005102432150981467,-0.09890794389110003,0.0019728016232188617,0.3078676262583482,9.688577475126408,-0.4484914604234296
1560000130306163712,-0.0019203490810468793,-0.08508627420468429,0.004087832467118913,0.2587490936700322,9.696003218566933,-0.44435180490348675
1560000130316186624,-0.0029810433990542923,-0.0818966495432516,-0.0022572601801462006,0.18681579581018326,9.708296893222531,-0.46973887884760285
1560000130326209792,-0.0029810433990542923,-0.07339100608730664,-0.001199744758196175,0.18681579581018326,9.732620825641147,-0.5681000019231305
1560000130336232704,0.0012617339888877088,-0.05744290508801875,-0.003314775602096226,0.2167030515771507,9.756944131461,-0.6715108884640089
1560000130346255616,-0.004041737717061705,-0.054253287862544575,-0.003314775602096226,0.2894173490010493,9.781267368486835,-0.7821612028915497
1560000130356278784,-0.004041737717061705,-0.03617878157623933,0.004087832467118913,0.34247145130567364,9.785860195516761,-0.872867614491421
1560000130366301440,-0.0019203490810468793,-0.027673132543325485,0.0019728016232188617,0.37301880864487774,9.783290088349645,-0.9251506899233547
1560000130376324352,-0.004041737717061705,-0.01172503805050129,-0.004372291139611212,0.33666545775253226,9.771129735485442,-0.8513915160354593
1560000130386347008,-0.010405903625106183,-0.007472213069296962,-0.004372291139611212,0.30031262389704694,9.744102140074183,-0.75508808556413
1560000130396370176,-0.005102432150981467,0.001033437125485398,-0.00014222933624614964,0.2642328147442323,9.708034213267297,-0.6448633493962116
1560000130406393088,-0.007223820786996293,0.015918324559700547,-0.001199744758196175,0.2521130396373215,9.708034213267297,-0.5710920536848403
1560000130416416000,-0.0029810433990542923,0.02761359453606782,0.0009152860857038758,0.21006583029212583,9.703028712954296,-0.48214292168126044
1560000130426439168,-0.004041737717061705,0.0403720690149334,-0.00014222933624614964,0.12523298093195467,9.690867166797066,-0.3714932464087237
1560000130436461824,-0.0008596547630394663,0.02974000540005406,0.0030303169296039267,0.13877447180568467,9.698449774240494,-0.3107402821892237
1560000130446484480,-0.0019203490810468793,0.0350560353485041,-0.003314775602096226,0.16999540660933296,9.710611492659734,-0.26156195099582674
1560000130456507648,0.0012617339888877088,0.03718244807147997,0.0019728016232188617,0.1821145737102404,9.722773219638977,-0.2123835927384136
1560000130466530560,0.0023224281909827726,0.044624894460885134,-0.00014222933624614964,0.14972532797090038,9.734934728815162,-0.17825555925751663
1560000130476553472,0.00020103955496794668,0.04887771990683687,0.0009152860857038758,0.08912738754831472,9.746946719234984,-0.15366550918757088
1560000130486576384,0.00020103955496794668,0.046751303465881744,0.0009152860857038758,0.028531233995650246,9.746946719234984,-0.1290761825559757
1560000130496599552,0.0023224281909827726,0.03930886451243509,-0.003314775602096226,-0.03206561866618166,9.741930401678678,-0.11970068952701936
1560000130506621952,0.00020103955496794668,0.03930886451243509,-0.003314775602096226,-0.09265853126687335,9.729769859758834,-0.1319946953892539
1560000130516644864,0.0023224281909827726,0.02974000540005406,0.0009152860857038758,-0.09416564309050986,9.727490951408186,-0.14428928981773076
1560000130526668032,0.003383122624902535,0.021234356367140217,0.004087832467118913,-0.07946720228513425,9.730078843923032,-0.15920050140668537
1560000130536690688,0.003383122624902535,0.01698153092118848,0.0019728016232188617,-0.055229670262769065,9.742239566652646,-0.18378887871952915
1560000130546713856,0.0012617339888877088,0.011665499113748812,-0.001199744758196175,-0.04584784617342308,9.746946719234984,-0.16316491212988973
1560000130556736768,0.0012617339888877088,0.0020966432545996283,-0.004372291139611212,-0.046162639906806247,9.746788777440202,-0.11367126568687651
1560000130566759936,0.003383122624902535,0.0020966432545996283,-0.001199744758196175,-0.07040060428671147,9.734627837783378,-0.03990481909774274
1560000130576782592,0.003383122624902535,-0.00959862579227283,0.0019728016232188617,-0.09964332731507543,9.722467300825294,0.008465001639548289
1560000130586805504,0.003383122624902535,-0.01810427528993408,0.0030303169296039267,-0.1359997144469077,9.710305935484701,0.02075922561447668
1560000130596828416,0.003383122624902535,-0.01810427528993408,0.0009152860857038758,-0.06395780036497434,9.708034213267297,-0.046921818450621725
1560000130606851328,0.003383122624902535,-0.022357100735885815,0.0009152860857038758,0.01748551898968685,9.713219692933068,-0.13559835751637248
1560000130616874496,0.008686594330851949,-0.022357100735885815,0.0019728016232188617,0.04172563871702312,9.737544348718496,-0.23396239017363016
1560000130626897408,0.007625899896932187,-0.030862751627789287,0.0030303169296039267,0.0659762453941867,9.761879900387788,-0.32482082401407003
1560000130636920320,0.003383122624902535,-0.03405236885326346,0.0019728016232188617,0.08897032565840758,9.786041294336144,-0.4098518561753204
1560000130646932480,0.0012617339888877088,-0.04149481152468937,-0.001199744758196175,0.028441194875865425,9.798190247882388,-0.4221329155157306
1560000130656955648,0.003383122624902535,-0.03617878157623933,-0.001199744758196175,-0.017104208859210532,9.800283213952804,-0.3886225652598206
1560000130666978816,0.00020103955496794668,-0.0457476369706411,-0.0022572601801462006,-0.04134360773366884,9.788120337938778,-0.2902614517650158
1560000130677001472,0.0023224281909827726,-0.054253287862544575,0.0019728016232188617,-0.07545061870327777,9.74625168892241,-0.1418481111245859
1560000130687024640,0.0023224281909827726,-0.054253287862544575,0.0009152860857038758,-0.08321875961339872,9.705425708418549,-0.016282826711505827
1560000130697047808,0.00020103955496794668,-0.06701176420039978,0.0030303169296039267,0.013744602878962245,9.693262715534638,-0.016282826711505827
1560000130707070464,0.005504511492742059,-0.06594855597992222,0.0009152860857038758,0.11069502402734488,9.71100548966636,-0.07674525823302854
1560000130717093120,0.0023224281909827726,-0.07232779786682908,-0.00014222933624614964,0.2065624783558277,9.747306032714791,-0.17472692790328506
1560000130727116032,0.004443817058822297,-0.07126458964635152,-0.00014222933624614964,0.23080129828991702,9.771629993065249,-0.24849600585202608
1560000130737139200,0.0023224281909827726,-0.06701176420039978,-0.001199744758196175,0.19971819061360052,9.775766309271287,-0.28655091467583016
1560000130747162112,0.0023224281909827726,-0.07126458964635152,-0.0022572601801462006,0.09064835792624171,9.751443433891628,-0.2742566127712424
1560000130757185024,0.00020103955496794668,-0.08402306598420672,-0.00014222933624614964,0.01121543533898707,9.766772290411298,-0.30204693379080816
1560000130767208192,0.004443817058822297,-0.0818966495432516,-0.00014222933624614964,-0.004110238950260275,9.785860195516761,-0.3521624799414869
1560000130777231104,-0.0029810433990542923,-0.09252870944015168,-0.001199744758196175,0.1898118731247332,9.785860195516761,-0.4505271040692942
1560000130787253760,-0.005102432150981467,-0.0893390922146775,-0.006487321983511263,0.145026201905267,9.785860195516761,-0.4580780488376796
1560000130797276928,-0.006163126353076531,-0.08614948242516185,-0.007544837521026249,-0.045281348487061855,9.784154751890023,-0.40775312777574346
1560000130807299840,-0.008284515220916056,-0.07977024053825499,-0.00014222933624614964,-0.008922575606238173,9.67469651582211,-0.2848028299923665
1560000130817322496,-0.0008596547630394663,-0.0765806158768223,0.005145348004633898,0.062709717623706,9.630978703127024,-0.22831213383912544
1560000130827345408,0.004443817058822297,-0.06169573425194974,0.009375409692434,0.18390743327754633,9.679627464023135,-0.2651977673236413
1560000130837368576,0.009747288764771711,-0.06701176420039978,0.004087832467118913,0.3051006696185089,9.718350068141095,-0.3923771092935571
1560000130847391232,0.012929372066530997,-0.06488534775944466,0.006202863542148884,0.3712776223078695,9.76008960671129,-0.5266163535069925
1560000130857413888,0.009747288764771711,-0.05637970058552044,0.0009152860857038758,0.2379799734185488,9.820892274986454,-0.6126700598798538
1560000130867437312,0.003383122624902535,-0.051063666919091144,-0.001199744758196175,0.19428371504733502,9.851724563643778,-0.6760044902486614
1560000130877459968,0.0012617339888877088,-0.048937257914094534,-0.001199744758196175,0.20679861418815929,9.86348838852131,-0.7261859355963395
1560000130887483136,-0.004041737717061705,-0.04255801974516693,0.005145348004633898,0.24315933562349412,9.851325576497057,-0.8368471089736336
1560000130897505792,-0.006163126353076531,-0.032989162491775526,0.0019728016232188617,0.31991297707158795,9.834096528963412,-0.9116460564886157
1560000130907528960,-0.011466598059025945,-0.027673132543325485,0.0030303169296039267,0.4532356191863368,9.809771511478443,-0.9362374198336587
1560000130917552128,-0.014648681360785232,-0.015977862566958212,-0.0022572601801462006,0.5469545596035268,9.745701338096167,-0.8603826821000777
1560000130927574528,-0.01358798692686547,-0.003219387971905782,-0.001199744758196175,0.6186294803892769,9.680654234713868,-0.7513462796010111
1560000130937597696,-0.012527292492945707,0.015918324559700547,-0.0022572601801462006,0.6428692278796204,9.644166883750657,-0.6038023915763246
1560000130947620608,-0.008284515220916056,0.03611924356898166,-0.0022572601801462006,0.6521430646692181,9.645224720772042,-0.5169908159664379
1560000130957643520,-0.006163126353076531,0.06376260153170943,-0.00014222933624614964,0.6523560948239264,9.66976207254594,-0.46954110982650044
1560000130967666176,-0.0019203490810468793,0.09140597064837497,-0.003314775602096226,0.6644743108504882,9.706244432882848,-0.5187156853564988
1560000130977689600,-0.0019203490810468793,0.12330215033907521,-0.004372291139611212,0.5905432438203977,9.73257025539092,-0.5422188211838294
1560000130987712256,-0.004041737717061705,0.15094551945574075,-0.0022572601801462006,0.3966488101639692,9.74473061650637,-0.5299250040976573
1560000130997734912,0.00020103955496794668,0.16689361301907013,-0.001199744758196175,0.6487147331072598,9.737002017271088,-0.5779538050520843
1560000131007758080,0.0023224281909827726,0.19772659192525133,0.0030303169296039267,0.9288668669810779,9.738093987022914,-0.6153121834321074
1560000131017780992,0.0012617339888877088,0.23281240371334277,-0.00014222933624614964,0.9531046340721658,9.78673973778223,-0.5661349949738915
1560000131027803904,-0.0019203490810468793,0.2530133152866654,0.0009152860857038758,0.9548705202562742,9.782766505372361,-0.4713625772132075
1560000131037826816,-0.0019203490810468793,0.2912887517361895,-0.001199744758196175,0.9425303704575112,9.746946719234984,-0.34886641984599565
1560000131047849728,-0.0029810433990542923,0.3178689126323775,-0.003314775602096226,0.9182926411399003,9.746946719234984,-0.25051203334949657
1560000131057872640,-0.004041737717061705,0.345512266877126,-0.005429806445996277,0.7977066016048362,9.736769566680861,-0.14700784432343184
1560000131067895296,-0.004041737717061705,0.37102923442475344,-0.007544837521026249,0.5431762515667615,9.712444042674562,-0.03634435226971139
1560000131077918464,0.0012617339888877088,0.391230116254242,-0.004372291139611212,0.6458691610648111,9.678162612068686,0.054179036288027144
1560000131087941376,0.0012617339888877088,0.4093046411304435,-0.005429806445996277,0.7878634519881587,9.64966399884463,0.12140226169596069
1560000131097964288,0.005504511492742059,0.436947995375192,-0.0022572601801462006,0.7878634519881587,9.64966399884463,0.12140226169596069
1560000131107987456,0.011868676705312442,0.4486432709285282,-0.003314775602096226,0.8178715051059284,9.679777421984094,0.03768564816843201
1560000131118010112,0.010807983198691473,0.47097062868663997,-0.008602353058541234,0.8580014029696235,9.728421292332106,-0.09660590226639897
1560000131128033024,0.010807983198691473,0.4816026514037475,-0.009659868133796379,0.4702032920482163,9.777066319820573,-0.1826647168865897
1560000131138055680,0.012929372066530997,0.49967714653611495,-0.01177489920882635,0.14310478896616435,9.815541123392368,-0.2326451150633293
1560000131148034816,0.011868676705312442,0.516688478063756,-0.009659868133796379,-0.09884129267872843,9.839820109368898,-0.2326451150633293
1560000131158058240,0.008686594330851949,0.5156252549713614,-0.009659868133796379,-0.12293626122091611,9.834267660511506,-0.2024318470884921
1560000131168080640,0.003383122624902535,0.5134988682742403,-0.003314775602096226,-0.10667059384453491,9.81677432287015,-0.14398893457346257
1560000131178103552,0.003383122624902535,0.5124356451818457,-0.005429806445996277,-0.11878981888887774,9.78028953135903,-0.008747625525476449
1560000131188126720,0.004443817058822297,0.5049932025104198,-0.001199744758196175,-0.15342867055111695,9.743805020156215,0.14933834144323457
1560000131198149632,0.003383122624902535,0.4943611500494782,-0.006487321983511263,-0.20709532048811288,9.707797292282189,0.3197718192041502
1560000131208172544,0.005504511492742059,0.4837290678447026,-0.008602353058541234,-0.5221765832397478,9.695636216222407,0.4058293638903839
1560000131218195200,0.007625899896932187,0.45395929715899896,-0.004372291139611212,-0.7406513144438266,9.698781718208,0.42483319070069275
1560000131228218368,0.007625899896932187,0.43056874605232665,-0.0022572601801462006,-0.8254841614431343,9.72310481052246,0.35106672135869554
1560000131238241024,0.010807983198691473,0.39760936557710735,-0.0022572601801462006,-0.7712550043747296,9.767360168863545,0.26723118287679337
1560000131248264192,0.009747288764771711,0.3603971522199778,-0.004372291139611212,-0.7023994670325455,9.80531790397174,0.1919778595370456
1560000131258287104,0.005504511492742059,0.32318493886284827,-0.001199744758196175,-0.6902813573797614,9.80531790397174,0.1550973665839804
1560000131268310016,0.006565205463012425,0.29660474822282623,-0.003314775602096226,-0.8508685226783114,9.797782257984753,0.2248650532079293
1560000131278332672,0.003383122624902535,0.2551397317276205,-0.006487321983511263,-1.1164930287047794,9.785384067616134,0.36032180820719206
1560000131288356096,-0.0019203490810468793,0.2136746854885807,-0.005429806445996277,-1.3346235866385256,9.761062204833294,0.507847269946029
1560000131298378752,0.00020103955496794668,0.16902001458810822,-0.004372291139611212,-1.3747836926588826,9.741844728739371,0.6037814123676325
1560000131308401664,0.004443817058822297,0.12436535855955277,-0.00014222933624614964,-1.168784282451391,9.729685163092505,0.6283674381427946
1560000131318424320,-0.0008596547630394663,0.0775842860900422,0.005145348004633898,-0.9925818923493179,9.727490951408186,0.6025807075223943
1560000131328447488,0.004443817058822297,0.03930886451243509,0.006202863542148884,-0.8495300984894757,9.730160273382905,0.5468099145497968
1560000131338470400,0.004443817058822297,-0.004282594217206864,0.005145348004633898,-0.801061808511331,9.742319296732703,0.4238852106881388
