#timestamp [ns],w_RS_S_x [rad s^-1],w_RS_S_y [rad s^-1],w_RS_S_z [rad s^-1],a_RS_S_x [m s^-2],a_RS_S_y [m s^-2],a_RS_S_z [m s^-2]
1560244957139151616,0.005504511492742059,-2.9769236002535893e-05,0.0019728016232188617,0.12864987776019277,9.76321741325099,-0.3671093568344238
1560244957149174528,0.00020103955496794668,-0.0021561817266047,0.0019728016232188617,0.12864987776019277,9.75105669879975,-0.3548157764903394
1560244957159197440,-0.0019203490810468793,-0.008535419430784896,-0.001199744758196175,0.1366718365743217,9.746946719234984,-0.3669370610661527
1560244957169220352,0.00020103955496794668,-0.01172503805050129,-0.00014222933624614964,0.14353374963322107,9.746193325918465,-0.3884761753165264
1560244957179242752,0.00020103955496794668,0.003159849616087562,0.004087832467118913,0.07084019925759671,9.734035784710606,-0.36389422369953206
1560244957189265920,0.0023224281909827726,-0.0021561817266047,-0.00014222933624614964,0.087657903295765,9.744334992206678,-0.3563370116517354
1560244957199288832,0.003383122624902535,-0.00959862579227283,-0.0022572601801462006,0.2088393959318266,9.780816529101468,-0.3686305919958198
1560244957209311744,0.004443817058822297,0.00528626233906343,-0.0022572601801462006,0.2047099744624368,9.775381977427745,-0.39151558074463344
1560244957219334400,0.0023224281909827726,0.001033437125485398,0.0019728016232188617,0.19949272482363972,9.769583821761673,-0.4128838956103555
1560244957229357312,0.0023224281909827726,0.004223055977575496,0.004087832467118913,0.24795811394665684,9.781742728492729,-0.42517562932726544
1560244957239380224,-0.0008596547630394663,0.011665499113748812,-0.0022572601801462006,0.23231573356362,9.777818397179795,-0.404949129652457
1560244957249402880,0.003383122624902535,0.010602293681755692,0.0019728016232188617,0.18384955566999742,9.76491516522516,-0.3680733271515125
1560244957259425792,0.00020103955496794668,0.006349468235803957,-0.00014222933624614964,0.1353844427693317,9.740598102646093,-0.3311983164116611
1560244957269448704,-0.0008596547630394663,0.011665499113748812,-0.00014222933624614964,0.09250617305747189,9.733095311493143,-0.3113222996808087
1560244957279471360,0.0012617339888877088,0.008475880958779825,0.004087832467118913,0.05616015467549766,9.745252599756286,-0.3113222996808087
1560244957289494272,0.004443817058822297,0.006349468235803957,0.0009152860857038758,0.05109533295035362,9.757411476818982,-0.3324804624327414
1560244957299517184,0.0012617339888877088,0.008475880958779825,-0.00014222933624614964,0.06056325640282922,9.766403457375873,-0.3538625545876117
1560244957309540096,-0.0008596547630394663,0.0020966432545996283,-0.00014222933624614964,0.09691230060544304,9.766403457375873,-0.36615430746066935
1560244957319563008,0.0023224281909827726,0.003159849616087562,-0.00014222933624614964,0.10926123966921075,9.766403457375873,-0.36221460321576726
1560244957329585664,0.00020103955496794668,-2.9769236002535893e-05,-0.0022572601801462006,0.1099883568269423,9.766403457375873,-0.3499232492412826
1560244957339608576,0.00020103955496794668,-2.9769236002535893e-05,0.0009152860857038758,0.12210380597235512,9.766403457375873,-0.3376324194773719
1560244957349631232,0.0023224281909827726,-0.0064090067078090285,0.005145348004633898,0.11751087266211684,9.766403457375873,-0.31404121453749295
1560244957359653888,0.0012617339888877088,-0.004282594217206864,0.0019728016232188617,0.09327875217397175,9.766403457375873,-0.27716687139753904
1560244957369677312,-0.0008596547630394663,-0.007472213069296962,-0.003314775602096226,0.1002861462265171,9.755953338271528,-0.282547979137265
1560244957379699968,0.004443817058822297,-0.0064090067078090285,-0.0022572601801462006,0.1124019857562842,9.746946719234984,-0.29802541507495695
1560244957389722880,0.0012617339888877088,-0.005345800578694798,0.0019728016232188617,0.12451851551259152,9.746946719234984,-0.32260925753172975
1560244957399745792,-0.0019203490810468793,-0.00959862579227283,0.0009152860857038758,0.15271269334291618,9.754995829735108,-0.3472656892494749
1560244957409696000,0.003383122624902535,-0.001092975481303618,0.0030303169296039267,0.18681579581018326,9.766403457375873,-0.3703302111342346
1560244957419718912,0.005504511492742059,-0.003219387971905782,0.0009152860857038758,0.18681579581018326,9.766403457375873,-0.3703302111342346
1560244957429741312,0.004443817058822297,-0.005345800578694798,-0.001199744758196175,0.19237203767779876,9.766403457375873,-0.3646935306259731
1560244957439764224,0.00020103955496794668,-0.0021561817266047,0.0009152860857038758,0.20448838023785104,9.766403457375873,-0.3524017777529154
1560244957449787392,-0.0008596547630394663,0.001033437125485398,-0.00014222933624614964,0.16460019315919977,9.755965866655885,-0.3506608919895484
1560244957459810048,0.0012617339888877088,-0.001092975481303618,0.0030303169296039267,0.12864987776019277,9.746946719234984,-0.3506608919895484
1560244957469832960,0.003383122624902535,0.0020966432545996283,0.0009152860857038758,0.12864987776019277,9.746946719234984,-0.3506608919895484
1560244957479856128,0.004443817058822297,0.001033437125485398,0.0030303169296039267,0.12067544184475297,9.754949164311318,-0.3506608919895484
1560244957489878528,0.0012617339888877088,-0.0021561817266047,-0.00014222933624614964,0.10926123966921075,9.767107141581736,-0.352795007390843
1560244957499901184,0.0023224281909827726,0.001033437125485398,0.0019728016232188617,0.10926123966921075,9.77926586757033,-0.389669679546628
1560244957509924352,0.00020103955496794668,-2.9769236002535893e-05,-0.0022572601801462006,0.12035149461652472,9.780295590967675,-0.4040433944133406
1560244957519947264,-0.0008596547630394663,0.004223055977575496,-0.0022572601801462006,0.14458347110977482,9.768137045716164,-0.3917520261248705
1560244957529969920,0.0012617339888877088,-0.007472213069296962,-0.004372291139611212,0.12726091754228175,9.766403457375873,-0.4005386756849721
1560244957539992832,0.00020103955496794668,-0.0021561817266047,-0.00014222933624614964,0.11861198765127831,9.763275593216754,-0.40650675437433353
1560244957550015744,-0.0008596547630394663,-0.003219387971905782,-0.00014222933624614964,0.15496265293869632,9.751116144226078,-0.3942144724740206
1560244957560038656,-0.0029810433990542923,-0.004282594217206864,-0.001199744758196175,0.14354239482424178,9.746946719234984,-0.3819226708513299
1560244957570061312,0.003383122624902535,-0.00959862579227283,0.0030303169296039267,0.11063905961818432,9.747638048982795,-0.3703302111342346
1560244957580084224,0.003383122624902535,-0.001092975481303618,0.0009152860857038758,0.13487485487125905,9.75979851032085,-0.3703302111342346
1560244957590107136,0.0012617339888877088,-0.004282594217206864,-0.003314775602096226,0.1369679380212616,9.766403457375873,-0.37594562194839143
1560244957600130048,0.0023224281909827726,-0.004282594217206864,0.0009152860857038758,0.11273488086903305,9.766403457375873,-0.3882375383876697
1560244957610152960,0.0023224281909827726,-0.004282594217206864,-0.00014222933624614964,0.11964110295795498,9.766403457375873,-0.40052961136198206
1560244957620175616,0.0012617339888877088,-2.9769236002535893e-05,-0.001199744758196175,0.13175743161211817,9.769521926710876,-0.4065162518298929
1560244957630198528,0.0012617339888877088,-0.001092975481303618,0.0009152860857038758,0.14387377889287245,9.781680833441932,-0.3942245181129829
1560244957640221696,0.0012617339888877088,-0.001092975481303618,0.0030303169296039267,0.14803851207413032,9.777879887114318,-0.3819320123064984
1560244957650244352,0.0012617339888877088,0.0020966432545996283,0.0030303169296039267,0.14871928022458922,9.765720297983433,-0.36963958765874366
1560244957660267008,0.003383122624902535,-0.001092975481303618,-0.001199744758196175,0.16083533928851435,9.753561680481587,-0.3573481271749644
1560244957670289920,-0.0008596547630394663,-0.0021561817266047,-0.00014222933624614964,0.16190285256683598,9.746946719234984,-0.345056628595373
1560244957680312576,0.0023224281909827726,-0.001092975481303618,-0.001199744758196175,0.14978733380343098,9.746946719234984,-0.33276572581133995
1560244957690335744,0.003383122624902535,0.001033437125485398,0.0009152860857038758,0.13767062217460657,9.75735102701563,-0.34150956344948935
1560244957700358656,0.0012617339888877088,0.003159849616087562,-0.00014222933624614964,0.11936390831382146,9.769509652744055,-0.3506608919895484
1560244957710381312,0.00020103955496794668,-0.0021561817266047,0.0009152860857038758,0.08302058985310484,9.781666643795878,-0.3506608919895484
1560244957720404480,0.0023224281909827726,0.006349468235803957,-0.001199744758196175,0.09429416546851196,9.769930976292326,-0.3506608919895484
1560244957730427392,-0.0019203490810468793,-0.004282594217206864,0.0030303169296039267,0.12997740447527054,9.747612814104073,-0.3506608919895484
1560244957740449792,-0.0019203490810468793,-0.00959862579227283,0.0009152860857038758,0.1542095226031208,9.759771431605918,-0.3506608919895484
1560244957750472448,0.0023224281909827726,-0.004282594217206864,0.0009152860857038758,0.17293415226192377,9.760877112095436,-0.333900733842477
1560244957760495616,0.0023224281909827726,-0.001092975481303618,0.0030303169296039267,0.18505025687448926,9.748718458359328,-0.2970262808121816
1560244957770518528,0.0012617339888877088,0.003159849616087562,-0.00014222933624614964,0.16611432577386942,9.746946719234984,-0.3021535638344731
1560244957780541184,0.0023224281909827726,0.003159849616087562,0.0019728016232188617,0.14496049360528868,9.750035549441968,-0.31756744885964955
1560244957790564352,0.003383122624902535,0.004223055977575496,-0.00014222933624614964,0.13284439843393073,9.762194203178078,-0.3421504143538883
1560244957800587264,0.004443817058822297,-0.005345800578694798,-0.001199744758196175,0.11280706813301375,9.774352685859846,-0.3586969723886937
1560244957810609920,0.0023224281909827726,-0.005345800578694798,0.0030303169296039267,0.09052107394157616,9.785209449142778,-0.36901449901101113
1560244957820632576,0.0012617339888877088,-0.0021561817266047,-0.001199744758196175,0.1026370610080608,9.773050903891267,-0.34443173370070357
1560244957830655744,0.00020103955496794668,0.0020966432545996283,-0.0022572601801462006,0.12024527069082605,9.760892151343635,-0.3254200752323697
1560244957840678400,0.00020103955496794668,-0.008535419430784896,0.0019728016232188617,0.14447631057782562,9.748734076040149,-0.31312918202575557
1560244957850701312,0.0012617339888877088,-0.0021561817266047,0.0030303169296039267,0.15837306484802088,9.746946719234984,-0.3218064470757741
1560244957860724224,0.0012617339888877088,-0.004282594217206864,0.0019728016232188617,0.16130423774716657,9.746946719234984,-0.33409736004706986
1560244957870746880,-0.0008596547630394663,-0.0021561817266047,-0.00014222933624614964,0.13707428072502506,9.746946719234984,-0.3463877147580861
1560244957880769792,0.0023224281909827726,0.001033437125485398,-0.001199744758196175,0.12864987776019277,9.75487742659902,-0.35867824891015737
1560244957890792704,0.00020103955496794668,-0.001092975481303618,0.0030303169296039267,0.12802164480927508,9.766403457375873,-0.3709675377526966
1560244957900815616,0.004443817058822297,-2.9769236002535893e-05,0.0019728016232188617,0.11592873580900975,9.766403457375873,-0.3832354915256554
1560244957910869760,0.00020103955496794668,-0.0064090067078090285,0.0019728016232188617,0.10926123966921075,9.766403457375873,-0.38999949962516567
1560244957920892416,-0.0029810433990542923,-0.0064090067078090285,-0.001199744758196175,0.10926123966921075,9.766403457375873,-0.38999949962516567
1560244957930915328,0.0012617339888877088,-0.005345800578694798,-0.00014222933624614964,0.12989345766600147,9.766403457375873,-0.3795340640022318
1560244957940938496,-0.0008596547630394663,-0.003219387971905782,0.0019728016232188617,0.15108194606579398,9.766403457375873,-0.3734176994129787
1560244957950961152,-0.0019203490810468793,-0.007472213069296962,0.0009152860857038758,0.16319746482919897,9.766403457375873,-0.3857085926195929
1560244957960984320,-0.004041737717061705,-0.003219387971905782,0.0019728016232188617,0.15954049831209888,9.766403457375873,-0.3739978695362575
1560244957971007232,0.00020103955496794668,-0.005345800578694798,0.0019728016232188617,0.14803851207413032,9.765787128254557,-0.35128395501776666
1560244957981029632,0.0023224281909827726,-2.9769236002535893e-05,-0.001199744758196175,0.14803851207413032,9.75362916144427,-0.3635747577006435
1560244957991052032,0.00020103955496794668,-0.0021561817266047,0.0009152860857038758,0.14258178396338916,9.757898509674437,-0.37586592642438205
1560244958001075456,-0.0019203490810468793,-0.003219387971905782,0.0019728016232188617,0.1304650403673574,9.78221711855127,-0.3881580621933087
1560244958011098368,0.0012617339888877088,-0.003219387971905782,0.0019728016232188617,0.12864987776019277,9.775523161671185,-0.38999949962516567
1560244958021121024,0.003383122624902535,-2.9769236002535893e-05,0.0009152860857038758,0.13167779374583674,9.766403457375873,-0.38999949962516567
1560244958031144448,-0.0008596547630394663,0.001033437125485398,0.004087832467118913,0.14379435722884254,9.766403457375873,-0.38999949962516567
1560244958041166848,-0.0019203490810468793,-0.001092975481303618,-0.00014222933624614964,0.14803851207413032,9.758504083587562,-0.3740281500713393
1560244958051189760,0.0023224281909827726,-0.001092975481303618,0.0019728016232188617,0.14743875068386522,9.746946719234984,-0.3500524484647337
1560244958061212416,-0.0019203490810468793,-0.003219387971905782,-0.001199744758196175,0.13532276361738058,9.746946719234984,-0.3377610705984745
1560244958071235328,0.003383122624902535,-0.0021561817266047,0.0019728016232188617,0.12864987776019277,9.752409264486568,-0.33651381195837454
1560244958081258240,-0.0008596547630394663,-2.9769236002535893e-05,0.0019728016232188617,0.12864987776019277,9.764568532718664,-0.3488059207038124
1560244958091281152,-0.0008596547630394663,-0.005345800578694798,-0.001199744758196175,0.11836197603942746,9.766403457375873,-0.3506608919895484
1560244958101304064,-0.0029810433990542923,-0.004282594217206864,-0.001199744758196175,0.11227707709593368,9.766403457375873,-0.3506608919895484
1560244958111326720,0.0023224281909827726,-0.0064090067078090285,0.0019728016232188617,0.1243940391282933,9.766403457375873,-0.3506608919895484
1560244958121349632,0.00020103955496794668,-0.004282594217206864,-0.001199744758196175,0.12864987776019277,9.758515019920585,-0.3426862730255533
1560244958131372288,0.0023224281909827726,-0.001092975481303618,0.0009152860857038758,0.12923814579799245,9.746946719234984,-0.3309915881717398
1560244958141395456,-0.004041737717061705,-0.0064090067078090285,0.0009152860857038758,0.14135542976523216,9.746946719234984,-0.3309915881717398
1560244958151418368,0.00020103955496794668,-0.004282594217206864,-0.003314775602096226,0.14803851207413032,9.746946719234984,-0.3254793102037154
1560244958161441024,0.00020103955496794668,-0.005345800578694798,-0.00014222933624614964,0.14803851207413032,9.746946719234984,-0.31318750343415197
1560244958171463936,0.0012617339888877088,-0.004282594217206864,0.0019728016232188617,0.14803851207413032,9.746946719234984,-0.32175074535479437
1560244958181486848,0.0023224281909827726,-0.005345800578694798,-0.0022572601801462006,0.14502912576034976,9.749966676212042,-0.3340445383049193
1560244958191509760,0.004443817058822297,-0.001092975481303618,-0.00014222933624614964,0.1329111572502903,9.762127209867074,-0.3463379262980931
1560244958201532672,0.0023224281909827726,-0.005345800578694798,-0.00014222933624614964,0.12864987776019277,9.766403457375873,-0.3506608919895484
1560244958211555584,0.00020103955496794668,-0.005345800578694798,0.0030303169296039267,0.12864987776019277,9.766403457375873,-0.3506608919895484
1560244958221577984,0.00020103955496794668,0.001033437125485398,0.0019728016232188617,0.12864987776019277,9.766403457375873,-0.3506608919895484
1560244958231600896,-0.0029810433990542923,0.001033437125485398,-0.00014222933624614964,0.13408164688392585,9.760952608813204,-0.3506608919895484
1560244958241623808,0.005504511492742059,-0.003219387971905782,0.0009152860857038758,0.1461987146574793,9.748792979058571,-0.3506608919895484
1560244958251646976,-0.0019203490810468793,0.0020966432545996283,-0.00014222933624614964,0.13776141182540025,9.75725991846034,-0.34023502063186145
1560244958261669632,-0.0008596547630394663,-0.005345800578694798,0.0009152860857038758,0.12864987776019277,9.766403457375873,-0.33403969871253913
1560244958271692544,0.0023224281909827726,-0.0021561817266047,-0.003314775602096226,0.12864987776019277,9.766403457375873,-0.3463312592904446
1560244958281715712,0.0012617339888877088,-2.9769236002535893e-05,-0.00014222933624614964,0.12864987776019277,9.766403457375873,-0.3506608919895484
1560244958291738368,0.00020103955496794668,0.003159849616087562,-0.0022572601801462006,0.12922626001011286,9.766981864205574,-0.35124561839365936
1560244958301761024,0.00020103955496794668,-0.001092975481303618,0.0019728016232188617,0.14134123852118363,9.779139397359053,-0.3635359826816674
1560244958311783936,0.0012617339888877088,-0.001092975481303618,0.0009152860857038758,0.14803851207413032,9.780422801293163,-0.364833408868356
1560244958321806848,0.00020103955496794668,-0.004282594217206864,0.0009152860857038758,0.14803851207413032,9.768264798220672,-0.35254256952708335
1560244958331829760,-0.0008596547630394663,-0.007472213069296962,0.0019728016232188617,0.13777743337273274,9.766403457375873,-0.36107051798375506
1560244958341852672,-0.0029810433990542923,-0.004282594217206864,-0.001199744758196175,0.13163853134289508,9.763404305954946,-0.3703302111342346
1560244958351875584,-0.0008596547630394663,0.003159849616087562,0.004087832467118913,0.14375541898521565,9.75124485696427,-0.3703302111342346
1560244958361898496,-0.0008596547630394663,-2.9769236002535893e-05,-0.00014222933624614964,0.1402044846008376,9.746946719234984,-0.3623827722344423
1560244958371921152,0.0023224281909827726,-0.004282594217206864,0.0009152860857038758,0.12864987776019277,9.747511038977397,-0.35123137739325727
1560244958381944064,0.004443817058822297,0.001033437125485398,-0.0022572601801462006,0.12864987776019277,9.759670957978436,-0.36352415359618895
1560244958391966976,0.004443817058822297,-0.001092975481303618,-0.00014222933624614964,0.12864987776019277,9.766403457375873,-0.3703302111342346
1560244958401989632,-0.0019203490810468793,-0.0021561817266047,0.0019728016232188617,0.12864987776019277,9.766403457375873,-0.3703302111342346
1560244958411937024,0.00020103955496794668,-0.005345800578694798,0.0019728016232188617,0.12864987776019277,9.766403457375873,-0.3703302111342346
1560244958421959680,-0.0029810433990542923,-0.0021561817266047,0.0009152860857038758,0.12864987776019277,9.766403457375873,-0.36730773823400237
1560244958431982848,0.00020103955496794668,-0.001092975481303618,0.0019728016232188617,0.12864987776019277,9.766403457375873,-0.35501551024466677
1560244958442005760,0.00020103955496794668,-0.007472213069296962,-0.001199744758196175,0.12864987776019277,9.766403457375873,-0.3506608919895484
1560244958452028160,0.003383122624902535,-0.005345800578694798,0.0030303169296039267,0.12920211762321293,9.766403457375873,-0.35122112650293824
1560244958462051072,0.00020103955496794668,-0.007472213069296962,0.0030303169296039267,0.14131882513965618,9.766403457375873,-0.36351324482673464
1560244958472074240,-0.0008596547630394663,-0.003219387971905782,-0.0022572601801462006,0.14264088230883196,9.766403457375873,-0.3703302111342346
1560244958482096896,-0.0008596547630394663,-0.0021561817266047,0.0009152860857038758,0.13052374249928306,9.766403457375873,-0.3703302111342346
1560244958492119808,0.003383122624902535,-0.004282594217206864,-0.00014222933624614964,0.12864987776019277,9.766403457375873,-0.38072143405104186
1560244958502142976,0.0012617339888877088,0.001033437125485398,0.0030303169296039267,0.13162132590847544,9.766403457375873,-0.38397057407413576
1560244958512165632,0.0023224281909827726,-0.001092975481303618,-0.0022572601801462006,0.14373828558036475,9.766403457375873,-0.359385844971973
1560244958522188544,-0.0008596547630394663,-0.001092975481303618,0.0009152860857038758,0.14803851207413032,9.758558861547717,-0.3506608919895484
1560244958532210944,0.0012617339888877088,-0.004282594217206864,0.0009152860857038758,0.1474929338368541,9.747494213850961,-0.35010741597202116
1560244958542234112,0.0012617339888877088,-2.9769236002535893e-05,0.0019728016232188617,0.13537665856210887,9.759653048323083,-0.337815745725404
1560244958552257024,0.00020103955496794668,-0.005345800578694798,0.0009152860857038758,0.12864987776019277,9.760994758382378,-0.3364593774276671
1560244958562279936,-0.0019203490810468793,-0.003219387971905782,-0.00014222933624614964,0.12864987776019277,9.748834947858414,-0.34875203438953273
1560244958572302592,0.0023224281909827726,-0.001092975481303618,0.0009152860857038758,0.13888537028212725,9.757218164583723,-0.3402772306713237
1560244958582325504,0.0023224281909827726,-0.007472213069296962,0.0009152860857038758,0.14507413767387262,9.763428670419584,-0.3370061637711971
1560244958592348416,0.003383122624902535,-0.004282594217206864,0.0030303169296039267,0.13295634932182734,9.75126831755538,-0.3615925838048013
1560244958602371584,0.0023224281909827726,-0.004282594217206864,-0.001199744758196175,0.12864987776019277,9.746946719234984,-0.3703302111342346
1560244958612394240,0.0023224281909827726,-0.0021561817266047,-0.001199744758196175,0.12864987776019277,9.746946719234984,-0.3697819323355089
1560244958622416896,0.00020103955496794668,0.001033437125485398,-0.001199744758196175,0.12864987776019277,9.746946719234984,-0.3574893754603982
1560244958632439552,-0.0008596547630394663,-2.9769236002535893e-05,0.0030303169296039267,0.12864987776019277,9.746946719234984,-0.35612423440322394
1560244958642462976,0.0012617339888877088,-0.004282594217206864,-0.0022572601801462006,0.12864987776019277,9.746946719234984,-0.36841602389339473
1560244958652485632,0.005504511492742059,-0.001092975481303618,-0.001199744758196175,0.1491077806153467,9.757211600513351,-0.35995317751305406
1560244958662508544,0.003383122624902535,0.001033437125485398,0.0009152860857038758,0.16447031047595484,9.763436235387154,-0.35666017001532985
1560244958672531712,-0.0008596547630394663,-0.001092975481303618,-0.003314775602096226,0.15235241402974387,9.751275774049098,-0.38124679978759063
1560244958682554368,-0.0019203490810468793,0.001033437125485398,-0.001199744758196175,0.14023555809680205,9.754777081590786,-0.3741676808419191
1560244958692576768,-0.0008596547630394663,0.003159849616087562,0.0009152860857038758,0.12811899804078694,9.766403457375873,-0.3506608919895484
1560244958702599680,0.0012617339888877088,-0.0021561817266047,0.0009152860857038758,0.11600300861402146,9.766403457375873,-0.3506608919895484
1560244958712622592,0.0012617339888877088,0.004223055977575496,-0.00014222933624614964,0.10926123966921075,9.761010039960523,-0.3506608919895484
1560244958722645760,0.0012617339888877088,0.0020966432545996283,-0.004372291139611212,0.10926123966921075,9.748850482490619,-0.3506608919895484
1560244958732668416,-0.0008596547630394663,-0.007472213069296962,0.0009152860857038758,0.10926123966921075,9.75720254481327,-0.3506608919895484
1560244958742691840,0.0023224281909827726,-0.005345800578694798,-0.00014222933624614964,0.10926123966921075,9.76344375612918,-0.3536529304274711
1560244958752714752,-0.0019203490810468793,-0.01172503805050129,-0.001199744758196175,0.10926123966921075,9.751283584050432,-0.36594596247319333
1560244958762737152,-0.0008596547630394663,-0.004282594217206864,0.0009152860857038758,0.11705658827370227,9.754769447979665,-0.3703302111342346
1560244958772759808,0.00020103955496794668,-2.9769236002535893e-05,0.0019728016232188617,0.1291741909366895,9.766403457375873,-0.3703302111342346
1560244958782782976,0.0012617339888877088,-0.0064090067078090285,-0.001199744758196175,0.14129190723131427,9.766403457375873,-0.3703302111342346
1560244958792805888,0.0023224281909827726,-0.007472213069296962,-0.00014222933624614964,0.15340909575688585,9.766403457375873,-0.3648818787381036
1560244958802828800,0.00020103955496794668,-0.003219387971905782,0.0019728016232188617,0.16552598339920643,9.766403457375873,-0.3525895776807887
1560244958812851968,-0.004041737717061705,-0.005345800578694798,0.0009152860857038758,0.15721067787363685,9.766403457375873,-0.3610252619853004
1560244958822874368,0.00020103955496794668,-0.008535419430784896,0.0030303169296039267,0.14803851207413032,9.766403457375873,-0.3673432066690468
1560244958832897280,0.00020103955496794668,0.006349468235803957,-0.00014222933624614964,0.14803851207413032,9.766403457375873,-0.35505163651320987
1560244958842920192,0.00020103955496794668,-0.004282594217206864,0.0030303169296039267,0.16361467691411757,9.766403457375873,-0.3585617176217239
1560244958852942848,0.0012617339888877088,-0.003219387971905782,0.0009152860857038758,0.1863001525055486,9.76588600324413,-0.3703302111342346
1560244958862965760,0.0012617339888877088,0.00528626233906343,0.0009152860857038758,0.17418325542140298,9.753726554253454,-0.3703302111342346
1560244958872988672,0.0012617339888877088,0.0020966432545996283,-0.0022572601801462006,0.15670541925277348,9.746946719234984,-0.3648917395690984
1560244958883011584,-0.0029810433990542923,-0.003219387971905782,0.0019728016232188617,0.13247128370566655,9.746946719234984,-0.3525992557728318
1560244958893034496,0.00020103955496794668,0.004223055977575496,-0.00014222933624614964,0.11844093092299317,9.7571915236598,-0.36101762940089915
1560244958903057152,0.00020103955496794668,-2.9769236002535893e-05,-0.00014222933624614964,0.10632161116078793,9.766403457375873,-0.3673480262952838
1560244958913077760,0.0023224281909827726,-2.9769236002535893e-05,-0.00014222933624614964,0.09420623694927482,9.766403457375873,-0.35505726057836845
1560244958923100160,-0.004041737717061705,-0.0021561817266047,-0.00014222933624614964,0.09765636576054297,9.766403457375873,-0.34276445401576994
1560244958933123584,-0.0008596547630394663,-2.9769236002535893e-05,0.0009152860857038758,0.1102885209023087,9.766403457375873,-0.3315126641893911
1560244958943146240,0.0012617339888877088,-0.001092975481303618,0.0019728016232188617,0.13452244260655763,9.766403457375873,-0.3438050287404725
1560244958953169152,-0.0019203490810468793,-0.005345800578694798,0.0009152860857038758,0.14803851207413032,9.766403457375873,-0.3506608919895484
1560244958963192320,-0.0019203490810468793,-0.001092975481303618,-0.00014222933624614964,0.14803851207413032,9.766403457375873,-0.3506608919895484
1560244958973214720,0.0023224281909827726,-0.004282594217206864,0.0019728016232188617,0.14803851207413032,9.766403457375873,-0.34030793426012723
1560244958983237632,-0.0029810433990542923,-0.00959862579227283,0.0030303169296039267,0.1451041157891611,9.763458753834932,-0.33694533959166156
1560244958993260800,0.00020103955496794668,-0.003219387971905782,0.0009152860857038758,0.1329860391860073,9.751298111707122,-0.36153234447314586
1560244959003283456,0.00020103955496794668,-2.9769236002535893e-05,-0.00014222933624614964,0.12086900028288503,9.746946719234984,-0.3703302111342346
1560244959013306368,-0.0008596547630394663,-0.005345800578694798,-0.00014222933624614964,0.11027988889747943,9.747457832834849,-0.36929681565702166
1560244959023329280,-0.0029810433990542923,-0.0064090067078090285,-0.0022572601801462006,0.13451474736221464,9.759617824133516,-0.3447111266550099
1560244959033352192,0.004443817058822297,-2.9769236002535893e-05,0.005145348004633898,0.1426836025925707,9.766403457375873,-0.33642401522174326
1560244959043375104,-0.0029810433990542923,-0.004282594217206864,0.0019728016232188617,0.1305676155260861,9.766403457375873,-0.3487153930880025
1560244959053398016,0.004443817058822297,-0.001092975481303618,0.0030303169296039267,0.12864987776019277,9.766403457375873,-0.34031409020571446
1560244959063420928,-0.0008596547630394663,-0.007472213069296962,-0.003314775602096226,0.12864987776019277,9.766403457375873,-0.33693220798045476
1560244959073443584,0.00020103955496794668,-0.003219387971905782,-0.0022572601801462006,0.12864987776019277,9.766403457375873,-0.36151694666117545
1560244959083466496,-0.0029810433990542923,-0.010661831689013357,0.0019728016232188617,0.13642325963856675,9.766403457375873,-0.3624442957817878
1560244959093489408,0.0012617339888877088,-2.9769236002535893e-05,0.004087832467118913,0.14803851207413032,9.766403457375873,-0.3506608919895484
1560244959103512320,0.0012617339888877088,-0.005345800578694798,-0.001199744758196175,0.14803851207413032,9.766403457375873,-0.3506608919895484
1560244959113535232,0.003383122624902535,-0.005345800578694798,-0.0022572601801462006,0.15338493425491465,9.766403457375873,-0.3452370751023258
1560244959123557888,0.0012617339888877088,-0.007472213069296962,0.0019728016232188617,0.16550099331883977,9.766403457375873,-0.33294562419639256
1560244959133580800,0.0012617339888877088,0.0020966432545996283,0.0009152860857038758,0.15723605798754622,9.766403457375873,-0.3206529818242908
1560244959143603712,0.0012617339888877088,0.003159849616087562,0.0009152860857038758,0.14219929417196084,9.766403457375873,-0.30836042681422754
1560244959153626624,-0.0008596547630394663,-0.003219387971905782,0.0019728016232188617,0.11796443570722563,9.766403457375873,-0.29606758710268577
1560244959163649024,0.0012617339888877088,0.003159849616087562,0.005145348004633898,0.10926123966921075,9.75861139081452,-0.2837758006489823
1560244959173672448,0.00020103955496794668,-2.9769236002535893e-05,-0.003314775602096226,0.10926123966921075,9.746946719234984,-0.27248428442397615
1560244959183695104,0.0012617339888877088,-0.003219387971905782,-0.00014222933624614964,0.10926123966921075,9.746946719234984,-0.28477628350069967
1560244959193718016,-0.0029810433990542923,0.001033437125485398,-0.001199744758196175,0.11459946330986362,9.75230369268646,-0.30248398886349315
1560244959203741184,0.005504511492742059,-2.9769236002535893e-05,-0.003314775602096226,0.12671646141218243,9.764463250156364,-0.3270687815712697
1560244959213763840,0.0012617339888877088,-0.007472213069296962,0.0009152860857038758,0.12864987776019277,9.766403457375873,-0.3309915881717398
1560244959223786752,0.00020103955496794668,-0.005345800578694798,-0.001199744758196175,0.13156157401754243,9.769325381153884,-0.3309915881717398
1560244959233809408,-0.0029810433990542923,-0.010661831689013357,-0.001199744758196175,0.14367817343018005,9.781484540902452,-0.3309915881717398
1560244959243832320,0.0023224281909827726,-0.001092975481303618,0.0019728016232188617,0.14803851207413032,9.770291681003517,-0.315252993119104
1560244959253854976,0.0012617339888877088,-2.9769236002535893e-05,0.0009152860857038758,0.14755282339771636,9.746946719234984,-0.2916529958630001
1560244959263878144,0.00020103955496794668,-0.004282594217206864,-0.003314775602096226,0.1354351071030916,9.746946719234984,-0.2916529958630001
1560244959273901312,-0.0008596547630394663,-0.0064090067078090285,0.0019728016232188617,0.12864987776019277,9.752297698238468,-0.2862435571903852
1560244959283924224,0.00020103955496794668,-0.001092975481303618,-0.001199744758196175,0.12864987776019277,9.764457147229146,-0.27395126571157125
1560244959293946624,0.003383122624902535,-0.0064090067078090285,-0.001199744758196175,0.12864987776019277,9.766403457375873,-0.27198369204519146
1560244959303969280,0.0023224281909827726,0.0020966432545996283,-0.003314775602096226,0.13155441145400323,9.76931819343138,-0.274930271713856
1560244959313992704,0.00020103955496794668,-0.005345800578694798,-0.0022572601801462006,0.14367205569549235,9.781478401678827,-0.28722333074435374
1560244959324015360,0.00020103955496794668,-0.0021561817266047,-0.00014222933624614964,0.1557890656765605,9.778082417595549,-0.2916529958630001
1560244959334038272,0.00020103955496794668,-2.9769236002535893e-05,0.0009152860857038758,0.16694779192113046,9.766403457375873,-0.2916529958630001
1560244959344061184,0.00020103955496794668,-0.0021561817266047,0.0009152860857038758,0.15483018372174268,9.766403457375873,-0.2916529958630001
1560244959354084096,-0.0019203490810468793,-2.9769236002535893e-05,-0.00014222933624614964,0.14803851207413032,9.766403457375873,-0.2808470913050787
1560244959364106752,0.00020103955496794668,0.003159849616087562,0.0030303169296039267,0.14803851207413032,9.766403457375873,-0.2562620062909584
1560244959374129408,0.0012617339888877088,-0.001092975481303618,0.005145348004633898,0.14803851207413032,9.766403457375873,-0.23167755962290706
1560244959384152576,0.007625899896932187,0.004223055977575496,0.004087832467118913,0.14803851207413032,9.763493508730278,-0.21591754468432603
1560244959394175488,-0.0019203490810468793,-0.003219387971905782,0.0019728016232188617,0.14803851207413032,9.75133333665153,-0.22821057194051297
1560244959404198400,-0.0019203490810468793,0.001033437125485398,0.0009152860857038758,0.14029562030736423,9.746946719234984,-0.24050008666414485
1560244959414227200,0.005504511492742059,-0.005345800578694798,0.0030303169296039267,0.12912373440330327,9.747422240330076,-0.2527951193625927
1560244959424249600,0.0012617339888877088,-2.9769236002535893e-05,0.004087832467118913,0.14124022570892106,9.759581291591893,-0.26508699918915357
1560244959434272768,0.0023224281909827726,-0.004282594217206864,0.0030303169296039267,0.14271960057508315,9.77174105189418,-0.27198369204519146
1560244959444295680,0.0012617339888877088,-0.003219387971905782,0.0009152860857038758,0.1306028930586399,9.783900320126275,-0.27198369204519146
1560244959454318592,-0.0008596547630394663,0.003159849616087562,-0.003314775602096226,0.11848678788754997,9.785860195516761,-0.25136329099110727
1560244959464341760,0.0012617339888877088,-2.9769236002535893e-05,-0.001199744758196175,0.10926123966921075,9.782959226547174,-0.23557777495487303
1560244959474364160,0.003383122624902535,-0.001092975481303618,0.0009152860857038758,0.10926123966921075,9.770800609045327,-0.24786921628296033
1560244959484386816,0.0012617339888877088,-0.004282594217206864,-0.003314775602096226,0.10926123966921075,9.766403457375873,-0.23662258605785152
1560244959494409728,-0.0029810433990542923,-0.008535419430784896,-0.00014222933624614964,0.11018350619289591,9.76547797449941,-0.21250799519168767
1560244959504432896,-0.0019203490810468793,-0.001092975481303618,0.0019728016232188617,0.1344160591027233,9.741160911920343,-0.200216329734079
1560244959514455808,0.00020103955496794668,-0.007472213069296962,0.0019728016232188617,0.14273327766227406,9.738138424683957,-0.19330650742771205
1560244959524478720,0.0023224281909827726,-0.001092975481303618,-0.00014222933624614964,0.1306162098887206,9.762457077788385,-0.19330650742771205
1560244959534501632,0.003383122624902535,0.001033437125485398,-0.0022572601801462006,0.13880000983246668,9.766403457375873,-0.20360356860813814
1560244959544524288,0.005504511492742059,-0.0021561817266047,0.0030303169296039267,0.14803851207413032,9.769291121801832,-0.21881422700558134
1560244959554546944,0.0012617339888877088,-0.004282594217206864,0.0009152860857038758,0.14803851207413032,9.781450028532886,-0.24339770880651207
1560244959564569856,0.0012617339888877088,-0.003219387971905782,0.0009152860857038758,0.1557604735105444,9.785860195516761,-0.2523144035542604
1560244959574593024,-0.0008596547630394663,-0.001092975481303618,-0.001199744758196175,0.16742714638806788,9.785860195516761,-0.25185736585451124
1560244959584615936,0.00020103955496794668,0.00528626233906343,0.0009152860857038758,0.16742714638806788,9.785860195516761,-0.23956471847143135
1560244959594638848,-0.0019203490810468793,-0.001092975481303618,-0.004372291139611212,0.1621308472292143,9.78054529276595,-0.22189917849258187
1560244959604661760,-0.0019203490810468793,-2.9769236002535893e-05,-0.003314775602096226,0.15001377945566086,9.768385663011317,-0.19731423005733556
1560244959614684416,0.004443817058822297,0.003159849616087562,-0.00014222933624614964,0.14803851207413032,9.766403457375873,-0.17272926063960453
1560244959624707584,-0.0019203490810468793,-0.0064090067078090285,-0.0022572601801462006,0.14516757371532296,9.763522434661148,-0.15396791128725296
1560244959634730240,0.0012617339888877088,-0.0021561817266047,-0.001199744758196175,0.13304996551593518,9.7513622625824,-0.15396791128725296
1560244959644753152,-0.0008596547630394663,0.00528626233906343,0.0030303169296039267,0.12864987776019277,9.754691002568329,-0.16179679971438
1560244959654776064,0.0012617339888877088,-2.9769236002535893e-05,-0.00014222933624614964,0.12820423483419208,9.766403457375873,-0.1745413988340646
1560244959664798720,0.0023224281909827726,0.001033437125485398,-0.00014222933624614964,0.11608655221891596,9.766403457375873,-0.19912758038493733
1560244959674821632,-0.0008596547630394663,0.006349468235803957,0.0019728016232188617,0.10926123966921075,9.777026060500127,-0.22371418923376513
1560244959684844800,-0.0008596547630394663,0.001033437125485398,-0.001199744758196175,0.10926123966921075,9.801347951211072,-0.24830117974608815
1560244959694867456,-0.0008596547630394663,0.0020966432545996283,0.0009152860857038758,0.1194012148920532,9.795141805954906,-0.23174088894496286
1560244959704890368,-0.0029810433990542923,-0.004282594217206864,-0.00014222933624614964,0.1315196204678351,9.782980372653004,-0.2100645196675215
1560244959714913536,-0.0029810433990542923,-0.0064090067078090285,-0.003314775602096226,0.14363733676245988,9.770820092099328,-0.1977713923304263
1560244959724936192,-0.004041737717061705,-0.00959862579227283,0.0009152860857038758,0.1403217445230614,9.766403457375873,-0.1776495613382662
1560244959734958848,-0.005102432150981467,-0.0064090067078090285,0.0009152860857038758,0.12864987776019277,9.765955361397934,-0.1535149200185288
1560244959744982016,-0.0008596547630394663,-0.004282594217206864,0.0009152860857038758,0.12864987776019277,9.75379399605734,-0.1412206960436004
1560244959755004672,-0.004041737717061705,-0.013851450773477159,-0.001199744758196175,0.12864987776019277,9.75226007119484,-0.1342986151328831
1560244959765027840,0.00020103955496794668,-0.007472213069296962,-0.00014222933624614964,0.12864987776019277,9.764421074918289,-0.1342986151328831
1560244959775050752,-0.0029810433990542923,-0.0021561817266047,0.0009152860857038758,0.14893408163948235,9.766403457375873,-0.12400969932378332
1560244959785073408,0.0012617339888877088,-0.005345800578694798,-0.001199744758196175,0.16742714638806788,9.766403457375873,-0.11462931706265356
1560244959795096320,-0.0019203490810468793,-0.010661831689013357,0.0030303169296039267,0.16742714638806788,9.766403457375873,-0.11462931706265356
1560244959805118976,-0.004041737717061705,-0.0064090067078090285,0.004087832467118913,0.16742714638806788,9.758658713505035,-0.13028802276667248
1560244959815142144,-0.0019203490810468793,-0.001092975481303618,0.0019728016232188617,0.16653297815575493,9.747395373762897,-0.15487502321692873
1560244959825164800,-0.0008596547630394663,-0.010661831689013357,-0.0022572601801462006,0.14229761764642404,9.75955561815002,-0.17946120716258332
1560244959835187712,0.00020103955496794668,-0.008535419430784896,0.0030303169296039267,0.13394366151141593,9.771715835883523,-0.19867692180007188
1560244959845210880,0.0012617339888877088,-2.9769236002535893e-05,-0.004372291139611212,0.14606119765981088,9.783875935658193,-0.21096986638321505
1560244959855233792,-0.0008596547630394663,-0.00959862579227283,0.0009152860857038758,0.13789859182729194,9.785860195516761,-0.1924024005164123
1560244959865256192,-0.004041737717061705,-0.005345800578694798,-0.001199744758196175,0.12864987776019277,9.780104856045877,-0.16781899617847648
1560244959875279104,-0.006163126353076531,-0.013851450773477159,-0.004372291139611212,0.12864987776019277,9.755785958064525,-0.1432344204047243
1560244959885302016,-0.0008596547630394663,-0.0021561817266047,0.004087832467118913,0.1363627305053227,9.754686663872207,-0.14212311594003643
1560244959895325184,-0.0029810433990542923,-0.005345800578694798,-0.0022572601801462006,0.14803851207413032,9.767291446594706,-0.15441674527713467
1560244959905347840,-0.004041737717061705,-0.0064090067078090285,-0.0022572601801462006,0.14803851207413032,9.791657824389322,-0.16673272652168267
1560244959915339520,-0.006163126353076531,-0.00959862579227283,0.0009152860857038758,0.14803851207413032,9.800012334413392,-0.17900047484326514
1560244959925362176,-0.006163126353076531,-0.003219387971905782,-0.00014222933624614964,0.14803851207413032,9.787851845176498,-0.1912932001010167
1560244959935385088,-0.0029810433990542923,-0.0064090067078090285,-0.00014222933624614964,0.1277727537433113,9.775691724951017,-0.1624678328460958
1560244959945407744,-0.007223820786996293,-0.0021561817266047,-0.00014222933624614964,0.11498483933077362,9.760659896981487,-0.1284921630130758
1560244959955430656,-0.005102432150981467,-0.005345800578694798,-0.001199744758196175,0.1392207787115594,9.736339436121334,-0.10390539421124477
1560244959965453568,-0.0029810433990542923,-0.004282594217206864,-0.00014222933624614964,0.13262099370354877,9.742962237509424,-0.10278036698306132
1560244959975476480,-0.005102432150981467,-0.007472213069296962,-0.0022572601801462006,0.10838600516406034,9.765964302985896,-0.11374141298204667
1560244959985499648,-0.004041737717061705,-0.00959862579227283,-0.001199744758196175,0.08414696788044805,9.753802214346495,-0.08915150023585827
1560244959995522560,-0.005102432150981467,-0.00959862579227283,-0.006487321983511263,0.07048396915281341,9.741640995190929,-0.06456281097307832
1560244960005545216,-0.0019203490810468793,-0.004282594217206864,-0.003314775602096226,0.07048396915281341,9.729480814874496,-0.03997553159018965
1560244960015568128,-0.0008596547630394663,-0.008535419430784896,0.0019728016232188617,0.08061872844275285,9.737660801503187,-0.05651505743226613
1560244960025591040,0.0012617339888877088,-0.0064090067078090285,-0.00014222933624614964,0.09559996560344897,9.74982045794006,-0.08400612163686628
1560244960035613696,0.004443817058822297,-0.003219387971905782,0.0009152860857038758,0.11983172588050345,9.761978894703747,-0.12087991544155366
1560244960045636608,0.004443817058822297,0.001033437125485398,0.0030303169296039267,0.11323271364267758,9.781875159548372,-0.19685996001020895
1560244960055659520,0.006565205463012425,-0.00959862579227283,0.0019728016232188617,0.0903110157378067,9.806637733012996,-0.2956558053566682
1560244960065682432,0.003383122624902535,-0.007472213069296962,0.0030303169296039267,0.10242826364794884,9.843116558171033,-0.4062896701195303
1560244960075705344,0.006565205463012425,-0.0021561817266047,0.0009152860857038758,0.12511499911550744,9.863687148080317,-0.49012099642091317
1560244960085728256,-0.0008596547630394663,-0.003219387971905782,0.0030303169296039267,0.16146890700635272,9.863687148080317,-0.5392945483936084
1560244960095751168,-0.006163126353076531,-0.003219387971905782,0.005145348004633898,0.17755933138386573,9.843351106959851,-0.4856807830509552
1560244960105773824,-0.009345209654835818,0.003159849616087562,0.005145348004633898,0.1925384098220256,9.807544835976815,-0.3886998925308446
1560244960115796736,-0.009345209654835818,0.006349468235803957,0.0030303169296039267,0.21677505806339573,9.734580677395773,-0.21658739803369895
1560244960125819648,-0.009345209654835818,0.011665499113748812,0.0030303169296039267,0.23330295696676256,9.661612296249386,-0.06010978648380165
1560244960135842560,-0.005102432150981467,0.010602293681755692,0.009375409692434,0.24277948529725987,9.593061737316782,0.08161683744500474
1560244960145865472,-0.0029810433990542923,0.008475880958779825,0.0030303169296039267,0.1821914395791276,9.64170242563177,0.06932382455742368
1560244960155888128,0.005504511492742059,0.01272870640473156,0.0009152860857038758,0.14803851207413032,9.685037125179836,0.0033967068642281745
1560244960165911552,0.004443817058822297,0.009539087320267758,0.0019728016232188617,0.14803851207413032,9.721520461752393,-0.13183695376630714
1560244960175934208,0.006565205463012425,0.01698153092118848,0.004087832467118913,0.137903740675068,9.778341789190756,-0.3184715637296909
1560244960185956608,0.008686594330851949,0.01379191183672468,0.0009152860857038758,0.13151349199264378,9.836267536243094,-0.4948222665742037
1560244960195979776,0.006565205463012425,0.015918324559700547,0.0019728016232188617,0.1436321090987683,9.884912880842801,-0.6054686899588009
1560244960206002688,0.0023224281909827726,0.015918324559700547,0.0009152860857038758,0.14803851207413032,9.87164464064574,-0.5909362786685477
1560244960216025600,-0.005102432150981467,0.009539087320267758,-0.00014222933624614964,0.14803851207413032,9.82300135223187,-0.5017477608714586
1560244960226049024,-0.006163126353076531,0.00528626233906343,-0.001199744758196175,0.14803851207413032,9.774360402573057,-0.32964242379958575
1560244960236071680,-0.008284515220916056,0.007412674597291891,-0.0022572601801462006,0.14803851207413032,9.731025861965751,-0.16826488836442205
1560244960246094336,-0.005102432150981467,0.001033437125485398,-0.001199744758196175,0.14803851207413032,9.694540853358903,-0.020728038715018215
1560244960256116992,-0.0008596547630394663,0.001033437125485398,-0.003314775602096226,0.09735312091350687,9.65805942138727,0.0033864694428640263
1560244960266139904,0.004443817058822297,0.0020966432545996283,0.0019728016232188617,0.05969479393893694,9.644590038351856,-0.019877379344223452
1560244960276163072,0.005504511492742059,-0.003219387971905782,-0.0022572601801462006,0.09604686432204833,9.705389633357056,-0.11821948120537555
1560244960286185728,0.005504511492742059,-0.001092975481303618,-0.0022572601801462006,0.09383611627209608,9.758449560173766,-0.271330993356761
1560244960296208896,0.008686594330851949,-0.008535419430784896,0.0009152860857038758,0.07004179190923858,9.807536533724782,-0.4525959895932875
1560244960306231552,0.006565205463012425,-0.0064090067078090285,-0.001199744758196175,0.057924290628014075,9.868336245301276,-0.5509392728622727
1560244960316254720,0.004443817058822297,-0.0064090067078090285,0.0019728016232188617,0.0669631645672536,9.897292768574236,-0.6009959164713988
1560244960326277376,-0.0029810433990542923,-0.01704106985794096,-0.0022572601801462006,0.10331761294824757,9.885132054122996,-0.5887023361273144
1560244960336300288,-0.0029810433990542923,-0.012788244411989225,0.0019728016232188617,0.10926123966921075,9.822110421749283,-0.4941420994763972
1560244960346323200,-0.006163126353076531,-0.012788244411989225,0.0019728016232188617,0.12072509427831211,9.754899481468943,-0.37477939135178767
1560244960356346112,-0.005102432150981467,-0.015977862566958212,-0.0022572601801462006,0.16919914214715262,9.706255783706782,-0.22725219857621026
1560244960366369280,-0.0029810433990542923,-0.008535419430784896,0.0019728016232188617,0.17138881358442923,9.680836892894972,-0.15016177288617352
1560244960376391680,-0.0029810433990542923,-0.008535419430784896,-0.001199744758196175,0.14803851207413032,9.670005909949214,-0.1186561116176636
1560244960386414592,0.0023224281909827726,-0.008535419430784896,0.0019728016232188617,0.14803851207413032,9.694327338851695,-0.22929821377326295
1560244960396437504,0.004443817058822297,-0.01172503805050129,0.004087832467118913,0.14272016034495213,9.740055877641307,-0.33481569975251047
1560244960406460416,0.009747288764771711,-0.005345800578694798,-0.00014222933624614964,0.1305337807354982,9.81342976821107,-0.43371797650157107
1560244960416393728,0.0023224281909827726,-0.01172503805050129,-0.00014222933624614964,0.14892260451166242,9.824772701484449,-0.5004228429869703
1560244960426416896,0.00020103955496794668,-0.01172503805050129,-0.00014222933624614964,0.16456136385523779,9.821897139544967,-0.5386320684857188
1560244960436439552,-0.0008596547630394663,-0.010661831689013357,0.0009152860857038758,0.15244512468043017,9.809739554026324,-0.5017571771914147
1560244960446462464,-0.006163126353076531,-0.010661831689013357,0.0030303169296039267,0.1557493438647079,9.78210376832742,-0.4179439143029388
1560244960456485376,0.00020103955496794668,-0.005345800578694798,0.0009152860857038758,0.16742714638806788,9.745179840333781,-0.30908954470693484
1560244960466508288,-0.004041737717061705,-0.012788244411989225,0.0009152860857038758,0.16742714638806788,9.69653570869882,-0.24761932918522098
1560244960476531200,0.00020103955496794668,-0.00959862579227283,-0.00014222933624614964,0.17271556259208104,9.685041700899202,-0.20761083863585647
1560244960486554112,0.003383122624902535,-2.9769236002535893e-05,-0.00014222933624614964,0.18483372070831938,9.721523844252921,-0.19531727266101884
1560244960496576768,0.005504511492742059,-0.003219387971905782,-0.001199744758196175,0.14627263851206287,9.70714817248697,-0.22415403636129455
1560244960506599680,0.005504511492742059,0.001033437125485398,-0.0022572601801462006,0.11212649884414401,9.700078623821952,-0.2668480792559458
1560244960516622848,0.004443817058822297,-0.007472213069296962,-0.0022572601801462006,0.12424475797032052,9.748721309049383,-0.3283164622035166
1560244960526645504,0.009747288764771711,0.00528626233906343,0.0019728016232188617,0.12093765891291239,9.78188245734791,-0.40542788850166034
1560244960536668416,0.007625899896932187,-0.001092975481303618,0.0019728016232188617,0.10881990097647612,9.805760748721022,-0.4892414277401943
1560244960546691328,0.007625899896932187,0.001033437125485398,0.0019728016232188617,0.09670139196023114,9.817920611826878,-0.5138293003876275
1560244960556714240,0.005504511492742059,-0.003219387971905782,0.0030303169296039267,0.08458280378051425,9.835389729868197,-0.5276845803691934
1560244960566737152,0.004443817058822297,-0.001092975481303618,0.0030303169296039267,0.07246411340442208,9.859712850098411,-0.5276845803691934
1560244960576760064,0.0023224281909827726,-0.007472213069296962,0.0009152860857038758,0.10090277341924114,9.822986282343596,-0.5482573265358243
1560244960586782976,-0.0019203490810468793,-0.003219387971905782,-0.0022572601801462006,0.13152053836798364,9.788741083168526,-0.5611987294166342
1560244960596805888,-0.007223820786996293,-0.0064090067078090285,0.0009152860857038758,0.1436394077484737,9.800903127353351,-0.5366101447675938
1560244960606828800,-0.006163126353076531,-0.012788244411989225,0.0019728016232188617,0.14803851207413032,9.774330604095855,-0.46503292993636264
1560244960616851456,-0.004041737717061705,-0.0064090067078090285,0.0030303169296039267,0.14803851207413032,9.726589606002138,-0.36850782584971586
1560244960626874368,0.0012617339888877088,-0.0064090067078090285,0.0009152860857038758,0.14803851207413032,9.702268900273733,-0.3193350049409335
1560244960636897280,0.00020103955496794668,-0.00959862579227283,0.0009152860857038758,0.13744627833300477,9.70452136799321,-0.29702577869795294
1560244960646920192,-0.0019203490810468793,-0.004282594217206864,-0.001199744758196175,0.11321033895221896,9.741002362508397,-0.30931916669112675
1560244960656942848,0.00020103955496794668,-0.005345800578694798,0.0009152860857038758,0.1295459953649354,9.736769224203403,-0.3627682722239713
1560244960666966016,0.003383122624902535,-0.001092975481303618,0.0030303169296039267,0.14229631440773516,9.739015685296803,-0.42714474670846886
1560244960676989184,0.006565205463012425,-0.0064090067078090285,0.0030303169296039267,0.11806160003214505,9.787655361300963,-0.5009013272950891
1560244960687011584,0.003383122624902535,-2.9769236002535893e-05,0.004087832467118913,0.12469317603835156,9.813060201938333,-0.5433398954335822
1560244960697034496,0.0012617339888877088,-0.00959862579227283,-0.003314775602096226,0.14759432371962006,9.823881226524644,-0.5656713031542553
1560244960717080320,-0.006163126353076531,-0.005345800578694798,-0.0022572601801462006,0.12864987776019277,9.775241328425611,-0.4865455345628956
1560244960727103488,-0.005102432150981467,-0.003219387971905782,0.0019728016232188617,0.12864987776019277,9.75092004416999,-0.43737154395880873
1560244960737126144,0.00020103955496794668,-0.004282594217206864,-0.00014222933624614964,0.13878766924765518,9.757120120368075,-0.40876900070419725
1560244960747149312,-0.0029810433990542923,-0.0064090067078090285,0.0009152860857038758,0.1365702581243728,9.757772198792198,-0.38999949962516567
1560244960757171968,-0.0029810433990542923,-0.004282594217206864,-0.00014222933624614964,0.08810313642537744,9.721294783657937,-0.38999949962516567
1560244960767194624,0.0012617339888877088,-0.003219387971905782,-0.00014222933624614964,0.09362183214947803,9.723513249931447,-0.38999949962516567
1560244960777217792,0.003383122624902535,-0.001092975481303618,0.0030303169296039267,0.12909176014011764,9.747390153755232,-0.391792614471538
1560244960787240704,0.0023224281909827726,-0.008535419430784896,0.0019728016232188617,0.14120936833950543,9.75955032583398,-0.4409646660218622
1560244960797263360,0.004443817058822297,-0.007472213069296962,-0.00014222933624614964,0.14803851207413032,9.771710050869357,-0.4901349265851447
1560244960807286272,0.0012617339888877088,-0.0064090067078090285,-0.001199744758196175,0.14803851207413032,9.783869861393319,-0.5393055544326074
1560244960817309184,0.003383122624902535,-0.008535419430784896,0.0009152860857038758,0.14803851207413032,9.785860195516761,-0.5473538688601245
1560244960827332096,0.00020103955496794668,-0.01172503805050129,-0.001199744758196175,0.1451760179854122,9.78873288755533,-0.5328342136277326
1560244960837355008,-0.0019203490810468793,-0.0021561817266047,-0.001199744758196175,0.13305877007527006,9.800893304493142,-0.4713709383971901
1560244960847377920,-0.0008596547630394663,-0.007472213069296962,0.0009152860857038758,0.13635875079914297,9.7666381492114,-0.4411869046525281
1560244960857400832,-0.0008596547630394663,-0.01172503805050129,0.0009152860857038758,0.14716285719457464,9.708473578561364,-0.42844974654272516
1560244960867423744,-0.0008596547630394663,-0.007472213069296962,0.0019728016232188617,0.12292871928697635,9.720633208315995,-0.40386481726476564
1560244960877446912,-0.0019203490810468793,-0.007472213069296962,-0.001199744758196175,0.11454501466134323,9.732793020538239,-0.39535975722313277
1560244960887469568,0.003383122624902535,-0.003219387971905782,-0.0022572601801462006,0.12666215683139753,9.744952116173456,-0.40765229494084276
1560244960897492480,0.003383122624902535,-0.003219387971905782,0.0009152860857038758,0.1387319217016382,9.75706417700521,-0.4505807378521558
1560244960907515392,0.003383122624902535,-2.9769236002535893e-05,0.0019728016232188617,0.14527154854673763,9.766403457375873,-0.49957404051543197
1560244960917615360,0.0012617339888877088,-0.0021561817266047,-0.00014222933624614964,0.1330601852890091,9.766403457375873,-0.5491265600948421
1560244960927638272,0.0023224281909827726,-0.001092975481303618,-0.00014222933624614964,0.1363574241515279,9.789606930581337,-0.5826613987254928
1560244960937660928,0.0023224281909827726,-0.005345800578694798,0.004087832467118913,0.14672923652407382,9.824334787040206,-0.605033536819747
1560244960947684096,0.00020103955496794668,-0.004282594217206864,0.0009152860857038758,0.11037392336398472,9.812174996263467,-0.5681519568081491
1560244960957706752,-0.0029810433990542923,0.001033437125485398,0.0030303169296039267,0.10044015431022124,9.789410638864933,-0.525912821760786
1560244960967729920,-0.008284515220916056,-0.0021561817266047,0.0009152860857038758,0.12467616574522047,9.752928322987165,-0.4767391235935673
1560244960977752832,-0.004041737717061705,-0.003219387971905782,0.0030303169296039267,0.12864987776019277,9.72661430862677,-0.4172890546636069
1560244960987775232,0.00020103955496794668,-0.003219387971905782,-0.00014222933624614964,0.1257904262064033,9.710903708269862,-0.3761318953240577
1560244960997798400,0.004443817058822297,0.0020966432545996283,0.0030303169296039267,0.11367234724256159,9.723064350397674,-0.4007188714672194
1560244961007821312,0.004443817058822297,0.001033437125485398,0.004087832467118913,0.1323816298157328,9.742958299384043,-0.4487605802808444
1560244961017843968,0.003383122624902535,0.001033437125485398,0.0030303169296039267,0.16655556574044864,9.766840778441265,-0.5088994888218713
1560244961027867136,0.0023224281909827726,-0.004282594217206864,-0.001199744758196175,0.14232193450637892,9.779000155153664,-0.5334839064867662
1560244961037890048,0.004443817058822297,-0.001092975481303618,0.004087832467118913,0.13921087580584907,9.785860195516761,-0.5527108041127237
1560244961047912704,0.003383122624902535,0.001033437125485398,0.004087832467118913,0.16344335415546427,9.785860195516761,-0.5650024281588328
1560244961057935616,0.0012617339888877088,-2.9769236002535893e-05,0.005145348004633898,0.14717730738660179,9.785860195516761,-0.5567516777108308
1560244961067958528,0.0012617339888877088,-2.9769236002535893e-05,0.0009152860857038758,0.12864987776019277,9.785860195516761,-0.5473538688601245
1560244961077981440,-0.0008596547630394663,0.0020966432545996283,0.004087832467118913,0.12864987776019277,9.785860195516761,-0.5473538688601245
1560244961088004608,-0.004041737717061705,0.0020966432545996283,-0.001199744758196175,0.13634492393229689,9.7781381199993,-0.523934556397972
1560244961098027776,-0.0029810433990542923,0.001033437125485398,0.0030303169296039267,0.14634848383257118,9.76555549629509,-0.48748872626697964
1560244961108050432,-0.0029810433990542923,-0.0021561817266047,0.0030303169296039267,0.09788640523866683,9.741239952015432,-0.46290692069891354
1560244961118073088,0.0012617339888877088,-0.004282594217206864,0.0019728016232188617,0.09680773931949438,9.722207704895942,-0.4436664030587127
1560244961128095744,-0.0008596547630394663,-0.005345800578694798,0.0019728016232188617,0.157384976785944,9.71004970182345,-0.431375582872164
1560244961138118912,-0.0019203490810468793,-0.003219387971905782,0.0019728016232188617,0.1371025363904904,9.72832112417547,-0.43959259744344
1560244961148141824,0.00020103955496794668,-0.003219387971905782,0.005145348004633898,0.12344129853090774,9.75263866546243,-0.4662697535473951
1560244961158164480,0.003383122624902535,0.0020966432545996283,0.0009152860857038758,0.18402070040367383,9.776955538989801,-0.5400173435511958
1560244961168187904,0.009747288764771711,0.006349468235803957,0.0019728016232188617,0.18316373553295312,9.785860195516761,-0.5826059710520559
1560244961178210560,0.00020103955496794668,0.001033437125485398,-0.0022572601801462006,0.14803851207413032,9.786269481342,-0.6067755013210666
1560244961188233472,-0.0019203490810468793,-0.001092975481303618,-0.0022572601801462006,0.14803851207413032,9.798429175198681,-0.6190674177603449
1560244961198256128,0.0023224281909827726,-2.9769236002535893e-05,0.0019728016232188617,0.14278618064207568,9.794776079947056,-0.5887325173554909
1560244961208279296,-0.0008596547630394663,-0.001092975481303618,0.005145348004633898,0.1306691849002342,9.770456358606019,-0.50268573808898
1560244961218301952,0.00020103955496794668,0.0020966432545996283,0.0019728016232188617,0.10845625187550037,9.756271179714599,-0.4576170610613067
1560244961228324864,0.0023224281909827726,0.0020966432545996283,0.0019728016232188617,0.0898726053552732,9.746946719234984,-0.4264723679484419
1560244961238347776,-0.0019203490810468793,-0.0021561817266047,0.0030303169296039267,0.0898726053552732,9.746946719234984,-0.41417935506086084
1560244961248370688,0.0023224281909827726,-0.005345800578694798,0.0009152860857038758,0.08220143174762201,9.746946719234984,-0.44079765844300184
1560244961258393600,0.0012617339888877088,-0.0064090067078090285,-0.003314775602096226,0.07128353021851046,9.747749088771352,-0.4899682430156527
1560244961268416512,0.003383122624902535,-0.007472213069296962,-0.003314775602096226,0.09551766694586306,9.772068348280616,-0.5391381207288586
1560244961278439424,0.00020103955496794668,-0.004282594217206864,-0.00014222933624614964,0.12499888646427611,9.796388549829027,-0.5776667997749825
1560244961288462336,0.004443817058822297,-0.010661831689013357,0.0030303169296039267,0.16135225388104363,9.820708649116535,-0.6022532102293737
1560244961298484992,-0.0008596547630394663,-0.00959862579227283,0.0019728016232188617,0.16742714638806788,9.804518738657448,-0.585886016203509
1560244961308508160,-0.0008596547630394663,-0.01172503805050129,0.0009152860857038758,0.1702474760335962,9.783029961487081,-0.5584397006754999
1560244961318530816,-0.0029810433990542923,-0.0064090067078090285,0.0019728016232188617,0.18236408488783426,9.770870801738512,-0.5215637321801487
1560244961328553984,0.0023224281909827726,-0.001092975481303618,0.0019728016232188617,0.17148302951579836,9.758710148561466,-0.4691285052657914
1560244961338576640,0.0012617339888877088,-0.001092975481303618,0.0019728016232188617,0.14803851207413032,9.746549580106098,-0.4100702857165316
1560244961348599552,0.003383122624902535,-0.004282594217206864,0.0030303169296039267,0.14803851207413032,9.73438954443361,-0.4223637737881124
1560244961358622720,-0.0029810433990542923,-0.004282594217206864,0.0009152860857038758,0.14279467868869966,9.73801519435383,-0.4452973015169528
1560244961368645120,0.0023224281909827726,-2.9769236002535893e-05,0.0019728016232188617,0.1306762056802693,9.762336667729642,-0.4821789913211593
1560244961378668288,0.006565205463012425,-0.0021561817266047,0.0030303169296039267,0.11855791623300291,9.776530865595111,-0.5190601164870006
1560244961388691200,0.003383122624902535,-0.004282594217206864,0.0019728016232188617,0.11772395194038657,9.785860195516761,-0.5502156058890348
1560244961398714112,-0.004041737717061705,-0.003219387971905782,0.0030303169296039267,0.15407461722780458,9.785860195516761,-0.5625078877893478
1560244961408737024,0.006565205463012425,-0.004282594217206864,0.0030303169296039267,0.15195335694895737,9.785860195516761,-0.5591742696058523
1560244961418613504,-0.0008596547630394663,-0.001092975481303618,0.005145348004633898,0.1294395918720714,9.785067707483195,-0.5461521501746082
1560244961428636672,0.0023224281909827726,-0.0021561817266047,0.0009152860857038758,0.15367286286723827,9.760749315562666,-0.5092760527008068
1560244961438659328,0.00020103955496794668,-0.004282594217206864,0.0019728016232188617,0.16218755142837418,9.741688982078687,-0.483030525354334
1560244961448682496,0.0012617339888877088,-0.0021561817266047,0.0030303169296039267,0.1500700152799792,9.729529488732291,-0.47073756640267034
1560244961458705152,0.005504511492742059,-2.9769236002535893e-05,0.0030303169296039267,0.13795365530819192,9.737610727181334,-0.45844581659918165
1560244961468728320,0.0012617339888877088,-0.001092975481303618,0.005145348004633898,0.12864987776019277,9.74976993206009,-0.4518614194171461
1560244961478751232,0.00020103955496794668,-2.9769236002535893e-05,0.0019728016232188617,0.12864987776019277,9.761930284924292,-0.4641546150651287
1560244961488773888,0.003383122624902535,-0.004282594217206864,0.0009152860857038758,0.12098943575793647,9.774090805676561,-0.4997619851968203
1560244961498797056,-0.0008596547630394663,-0.0021561817266047,0.0030303169296039267,0.10965184903335004,9.785860195516761,-0.5465613419962507
1560244961508819712,0.0023224281909827726,-0.0021561817266047,-0.001199744758196175,0.12177054058984582,9.785860195516761,-0.5219731229332322
1560244961518842368,0.0023224281909827726,-0.005345800578694798,-0.00014222933624614964,0.12864987776019277,9.780603196840314,-0.5027008561305292
1560244961528865536,0.0012617339888877088,-0.004282594217206864,0.005145348004633898,0.12864987776019277,9.768442735502259,-0.49040753166510026
1560244961538888448,0.0023224281909827726,-0.005345800578694798,0.0030303169296039267,0.12864987776019277,9.756282262484083,-0.4576506726001903
1560244961548911360,0.0012617339888877088,-2.9769236002535893e-05,0.0030303169296039267,0.13146489623530447,9.744121953705184,-0.42648231020297167
1560244961558934272,0.0023224281909827726,-0.004282594217206864,-0.0022572601801462006,0.14358250443469228,9.731962388058317,-0.4141892973153906
1560244961568957440,0.0023224281909827726,-0.0021561817266047,0.005145348004633898,0.1403766232673574,9.735179369649803,-0.4252143803311728
1560244961578980096,0.0023224281909827726,-0.0064090067078090285,-0.00014222933624614964,0.12864987776019277,9.747338653944658,-0.4497997983234556
1560244961589002752,0.004443817058822297,-0.0021561817266047,0.0009152860857038758,0.12864987776019277,9.759498464468619,-0.474385112247187
1560244961599025664,0.005504511492742059,-0.003219387971905782,0.0019728016232188617,0.1338860685699462,9.771658040643135,-0.48834597273357616
1560244961609048832,0.0023224281909827726,-0.0021561817266047,-0.0022572601801462006,0.1460030643117877,9.783817598113039,-0.48834597273357616
1560244961619071744,0.004443817058822297,-0.005345800578694798,0.004087832467118913,0.15811977182823095,9.785860195516761,-0.49857317658265504
1560244961629094912,0.003383122624902535,-0.005345800578694798,0.0019728016232188617,0.1646172745819893,9.783040453854966,-0.49946364728533016
1560244961639117568,0.00020103955496794668,-0.004282594217206864,0.004087832467118913,0.15249977448105256,9.770880390254373,-0.46258489929623664
1560244961649140480,0.0012617339888877088,-0.003219387971905782,-0.00014222933624614964,0.1327259139975753,9.758720265842411,-0.4412402404284263
1560244961659163136,0.00020103955496794668,0.004223055977575496,0.0009152860857038758,0.10926123966921075,9.74733312945865,-0.4289474451399189
1560244961669186048,-0.0008596547630394663,-0.003219387971905782,0.0009152860857038758,0.10926123966921075,9.759492036189705,-0.41665571142300895
1560244961679208960,-0.0008596547630394663,0.0020966432545996283,-0.0022572601801462006,0.11972040941934017,9.76115550375824,-0.4149740717121863
1560244961689231872,0.003383122624902535,-2.9769236002535893e-05,0.0019728016232188617,0.1439552678840754,9.748995512459572,-0.4272669018447999
1560244961699255040,0.0012617339888877088,0.004223055977575496,0.0009152860857038758,0.14803851207413032,9.767169092618397,-0.42933807660702783
1560244961709277696,-0.0019203490810468793,-0.007472213069296962,-0.001199744758196175,0.15084236874817014,9.785860195516761,-0.42649363357324144
1560244961719300608,0.0012617339888877088,-0.003219387971905782,0.0009152860857038758,0.1629590762646134,9.785860195516761,-0.4142015344061622
1560244961729323264,0.0012617339888877088,-0.001092975481303618,0.0009152860857038758,0.15212918935809847,9.778184349472031,-0.39414939024246554
1560244961739346432,-0.0008596547630394663,-0.005345800578694798,0.0030303169296039267,0.12902778058177958,9.766024227146282,-0.3695634641641202
1560244961749369344,-0.0019203490810468793,-2.9769236002535893e-05,0.0009152860857038758,0.14114574909183905,9.75386369349125,-0.3449766785984172
1560244961759392256,-0.0008596547630394663,0.001033437125485398,0.0019728016232188617,0.1428136949392983,9.746946719234984,-0.32569114081307793
1560244961769415424,0.004443817058822297,-0.003219387971905782,0.0019728016232188617,0.130696338931777,9.746946719234984,-0.3133983837678887
1560244961779437824,0.00020103955496794668,-0.0064090067078090285,0.0019728016232188617,0.12864987776019277,9.75705257170329,-0.3215385510486676
1560244961789460992,0.003383122624902535,-0.0021561817266047,0.0009152860857038758,0.12864987776019277,9.769213033041346,-0.3338318585687185
1560244961799483648,0.004443817058822297,-0.0021561817266047,-0.0022572601801462006,0.12864987776019277,9.781372915860786,-0.3461245886158914
1560244961809506816,0.0012617339888877088,0.00528626233906343,0.004087832467118913,0.1362959211245974,9.785860195516761,-0.3584176253774423
1560244961819529472,-0.0029810433990542923,-0.007472213069296962,0.0009152860857038758,0.14803851207413032,9.785860195516761,-0.369571719816188
1560244961829552384,0.00020103955496794668,-0.005345800578694798,0.0019728016232188617,0.14803851207413032,9.785860195516761,-0.34498712728005915
1560244961839575552,-0.0019203490810468793,-0.0021561817266047,0.004087832467118913,0.1428194041485055,9.780622755138358,-0.32569693266417654
1560244961849597952,0.00020103955496794668,0.0020966432545996283,0.0019728016232188617,0.13070345319481155,9.768464246126488,-0.3134056010112366
1560244961859621120,-0.0019203490810468793,-0.0064090067078090285,0.0019728016232188617,0.13871446447569105,9.756303518151224,-0.2909017367156792
1560244961869644288,0.0012617339888877088,-0.003219387971905782,0.0030303169296039267,0.14524395912346394,9.749751088232902,-0.27481869889155286
1560244961879666944,-0.0029810433990542923,-0.005345800578694798,0.006202863542148884,0.13312663917089929,9.76191097105234,-0.2871114289387258
1560244961889689856,0.003383122624902535,-0.0021561817266047,-0.001199744758196175,0.13628981589781106,9.774070231288327,-0.2916529958630001
1560244961899712512,-0.0029810433990542923,-0.004282594217206864,-0.00014222933624614964,0.14841780573109176,9.785860195516761,-0.2920377801677708
1560244961909735680,-0.0008596547630394663,-0.0064090067078090285,-0.0022572601801462006,0.16093390097336704,9.785860195516761,-0.3047350581682111
1560244961919247360,-0.0008596547630394663,0.001033437125485398,-0.001199744758196175,0.1622143575858861,9.785860195516761,-0.31661054459441274
1560244961929270272,0.0023224281909827726,-0.0021561817266047,0.0009152860857038758,0.15009710967574394,9.785860195516761,-0.3289031919774926
1560244961939293440,0.0012617339888877088,-0.007472213069296962,0.0009152860857038758,0.14803851207413032,9.775765624161494,-0.3207867411546651
1560244961949316352,0.0012617339888877088,-0.007472213069296962,-0.0022572601801462006,0.14803851207413032,9.763605410484761,-0.30566506834026
1560244961959339264,-0.0008596547630394663,-0.004282594217206864,-0.0022572601801462006,0.14803851207413032,9.75144505762056,-0.28107865788586883
1560244961969361664,-0.0029810433990542923,-2.9769236002535893e-05,-0.00014222933624614964,0.14803851207413032,9.746946719234984,-0.2797290067785153
1560244961979384576,-0.0029810433990542923,-0.005345800578694798,0.0009152860857038758,0.14803851207413032,9.747311775337,-0.2916529958630001
1560244961989407744,-0.0029810433990542923,0.001033437125485398,0.0009152860857038758,0.14803851207413032,9.759472598259942,-0.2916529958630001
1560244961999430656,0.0012617339888877088,-2.9769236002535893e-05,0.005145348004633898,0.1428273752308734,9.771632898672967,-0.3022261380669651
1560244962009453568,0.00020103955496794668,-0.0021561817266047,0.0009152860857038758,0.13070994717878656,9.783792889971634,-0.3268118079111204
1560244962019476736,0.0023224281909827726,0.003159849616087562,-0.0022572601801462006,0.12864987776019277,9.7757669204034,-0.3411951327373226
1560244962029499648,0.0023224281909827726,-2.9769236002535893e-05,-0.0022572601801462006,0.12864987776019277,9.766403457375873,-0.34783336194071784
1560244962039522048,-0.0008596547630394663,-0.004282594217206864,0.0009152860857038758,0.12864987776019277,9.766403457375873,-0.3355400836086526
1560244962049544960,0.003383122624902535,0.004223055977575496,0.004087832467118913,0.12864987776019277,9.766403457375873,-0.33873735445847925
1560244962059568128,0.003383122624902535,0.001033437125485398,-0.0022572601801462006,0.12901597843933907,9.766036070744509,-0.35028949164389034
1560244962069591040,0.0012617339888877088,0.0020966432545996283,0.0030303169296039267,0.14113448745558405,9.753874994684727,-0.3379955553201737
1560244962079613696,0.003383122624902535,-0.01172503805050129,0.0009152860857038758,0.1428246260228019,9.752178919396922,-0.33628095033900146
1560244962089637120,0.0023224281909827726,0.001033437125485398,0.0030303169296039267,0.13070626116853956,9.76433985078834,-0.34857474041384934
1560244962099659776,0.00020103955496794668,-0.003219387971905782,0.0030303169296039267,0.13871114403377482,9.766403457375873,-0.36086781291705766
1560244962109682432,0.0012617339888877088,-0.0064090067078090285,0.0019728016232188617,0.14524824134343267,9.769203529112248,-0.3731608715655596
1560244962119705344,0.0012617339888877088,-0.0021561817266047,0.004087832467118913,0.13313016474027886,9.781364171240059,-0.3854543596371404
1560244962129728256,0.0012617339888877088,-0.005345800578694798,-0.001199744758196175,0.12864987776019277,9.778195525076962,-0.38999949962516567
1560244962139751168,-0.0019203490810468793,-0.0021561817266047,0.0009152860857038758,0.12901737060597784,9.766403457375873,-0.38999949962516567
1560244962149774080,0.00020103955496794668,-0.003219387971905782,-0.001199744758196175,0.14113425824829842,9.766403457375873,-0.38999949962516567
1560244962159797504,-0.0008596547630394663,-0.005345800578694798,0.005145348004633898,0.14803851207413032,9.766403457375873,-0.3847103553693382
1560244962169819904,-0.0019203490810468793,-0.001092975481303618,-0.001199744758196175,0.14803851207413032,9.766403457375873,-0.3724175618114114
1560244962179843072,0.0012617339888877088,-0.003219387971905782,-0.0022572601801462006,0.14803851207413032,9.766403457375873,-0.36012387506352844
1560244962189865728,0.00020103955496794668,-0.004282594217206864,0.0009152860857038758,0.14524852959454124,9.766403457375873,-0.3506608919895484
1560244962199888640,-0.0019203490810468793,-2.9769236002535893e-05,0.0009152860857038758,0.13313074124249596,9.766403457375873,-0.3506608919895484
1560244962209911552,0.0012617339888877088,-0.0064090067078090285,0.004087832467118913,0.13628691616989605,9.774067321374933,-0.3584084900600684
1560244962219934464,0.0012617339888877088,-0.003219387971905782,0.0009152860857038758,0.14803851207413032,9.785492541469557,-0.3710735519210557
1560244962229957376,0.0023224281909827726,0.004223055977575496,-0.00014222933624614964,0.14803851207413032,9.773332188605355,-0.3956599432170208
1560244962239980288,0.0012617339888877088,-0.0021561817266047,0.0009152860857038758,0.14282574501300538,9.766403457375873,-0.4043805652582555
1560244962250003200,0.0012617339888877088,-0.005345800578694798,0.0009152860857038758,0.13070921761708415,9.766403457375873,-0.3920886488189772
1560244962260025856,0.0012617339888877088,-0.0064090067078090285,0.0009152860857038758,0.13870856056944844,9.776497471956429,-0.37979521546515155
1560244962270048768,0.003383122624902535,-2.9769236002535893e-05,-0.001199744758196175,0.14525005182079662,9.783061940617168,-0.3675013829786761
1560244962280071680,0.00020103955496794668,0.001033437125485398,0.0030303169296039267,0.13313136262510805,9.770900683745053,-0.3552072542873166
1560244962290094592,-0.005102432150981467,-2.9769236002535893e-05,-0.00014222933624614964,0.13628696854178554,9.766403457375873,-0.35840854319013377
1560244962300117504,-0.0008596547630394663,-0.0021561817266047,-0.00014222933624614964,0.14767154113414338,9.766403457375873,-0.3703302111342346
1560244962310140672,0.0023224281909827726,-0.0021561817266047,-0.00014222933624614964,0.1355525636659175,9.766403457375873,-0.3703302111342346
1560244962320163328,0.00020103955496794668,-0.007472213069296962,0.0009152860857038758,0.13386551523089665,9.766403457375873,-0.3597479291309277
1560244962330186496,-0.0008596547630394663,-0.004282594217206864,0.0009152860857038758,0.14598460078364422,9.766403457375873,-0.33515887713838777
1560244962340209408,0.00020103955496794668,-0.001092975481303618,-0.001199744758196175,0.13797391434837145,9.766403457375873,-0.3412018808239495
1560244962350232320,0.0012617339888877088,-0.007472213069296962,0.0009152860857038758,0.13144447483761798,9.769207870655547,-0.3506608919895484
1560244962360254720,-0.0008596547630394663,-0.0021561817266047,0.0009152860857038758,0.14356294784604837,9.781368910581033,-0.3506608919895484
1560244962370277888,0.003383122624902535,-0.0021561817266047,-0.003314775602096226,0.14803851207413032,9.778189458593028,-0.3506608919895484
1560244962380301056,0.00020103955496794668,-0.0021561817266047,0.0009152860857038758,0.1476637354867434,9.766027364361582,-0.350280690143366
1560244962390323968,-0.0008596547630394663,-0.003219387971905782,0.0019728016232188617,0.13554432551969878,9.753865384186353,-0.33798583982670294
1560244962400346880,-0.004041737717061705,0.001033437125485398,-0.001199744758196175,0.12864987776019277,9.752022913655809,-0.3309915881717398
1560244962410369536,0.0012617339888877088,0.0020966432545996283,-0.00014222933624614964,0.12864987776019277,9.763796323921337,-0.3309915881717398
1560244962420921856,0.004443817058822297,-0.0021561817266047,0.0009152860857038758,0.13872575198546327,9.766403457375873,-0.3309915881717398
1560244962430945024,0.00020103955496794668,-0.0021561817266047,0.0030303169296039267,0.14523172757323366,9.766403457375873,-0.3338390036320214
1560244962440967680,0.0023224281909827726,-2.9769236002535893e-05,-0.00014222933624614964,0.133113578899803,9.766403457375873,-0.346132574396608
1560244962450990848,-0.0008596547630394663,-0.001092975481303618,0.0030303169296039267,0.12864987776019277,9.766403457375873,-0.3506608919895484
1560244962461013248,0.0023224281909827726,-0.004282594217206864,-0.0022572601801462006,0.12864987776019277,9.766403457375873,-0.35027109102930076
1560244962471036416,-0.0008596547630394663,-0.005345800578694798,-0.00014222933624614964,0.12864987776019277,9.766403457375873,-0.33797759337827904
1560244962481059584,-0.0029810433990542923,-0.007472213069296962,-0.001199744758196175,0.1338817909461098,9.761153166757875,-0.3309915881717398
1560244962491082496,0.0023224281909827726,0.0020966432545996283,0.0019728016232188617,0.1459999396195405,9.748992452306636,-0.3309915881717398
1560244962501105664,0.0012617339888877088,-0.004282594217206864,0.0009152860857038758,0.13795924700775453,9.757061388369163,-0.34121676048871197
1560244962511128320,-0.0008596547630394663,0.006349468235803957,0.004087832467118913,0.13145785307478058,9.766403457375873,-0.3535095177214457
1560244962521150976,-0.0019203490810468793,-0.003219387971905782,0.0019728016232188617,0.14357463261436623,9.766403457375873,-0.3658017091110471
1560244962531174144,0.0012617339888877088,0.001033437125485398,-0.0022572601801462006,0.14803851207413032,9.774084159799978,-0.362565590664907
1560244962541197056,0.0023224281909827726,-0.001092975481303618,0.0019728016232188617,0.14803851207413032,9.785476087707055,-0.3510491964956975
1560244962551220224,0.0012617339888877088,-0.004282594217206864,0.0009152860857038758,0.14803851207413032,9.773316530237151,-0.36334160721746545
1560244962561242624,0.0012617339888877088,-0.0021561817266047,0.0030303169296039267,0.14803851207413032,9.766403457375873,-0.3703302111342346
1560244962571266048,0.0012617339888877088,-2.9769236002535893e-05,0.004087832467118913,0.14803851207413032,9.766403457375873,-0.3703302111342346
1560244962581288448,0.00020103955496794668,-0.003219387971905782,0.004087832467118913,0.13796455127470755,9.756294111140225,-0.3601104119051334
1560244962591311360,0.0012617339888877088,-0.0021561817266047,0.004087832467118913,0.12864987776019277,9.746946719234984,-0.35634995884163956
1560244962601334272,-0.0019203490810468793,-0.003219387971905782,0.0009152860857038758,0.12864987776019277,9.746946719234984,-0.3809374659245077
1560244962611357440,0.00020103955496794668,-2.9769236002535893e-05,-0.001199744758196175,0.13630190545038615,9.754625625165346,-0.3822367073757491
1560244962621380352,-0.004041737717061705,-0.007472213069296962,-0.001199744758196175,0.14803851207413032,9.766020744551604,-0.3703302111342346
1560244962631403008,0.0012617339888877088,-0.0021561817266047,-0.001199744758196175,0.14803851207413032,9.753860138575291,-0.3703302111342346
1560244962641426176,0.00020103955496794668,-0.0021561817266047,0.0019728016232188617,0.14803851207413032,9.757442405659518,-0.3703302111342346
1560244962651449088,-0.0008596547630394663,-0.001092975481303618,0.0019728016232188617,0.14803851207413032,9.78176455777908,-0.3703302111342346
1560244962661471744,-0.0019203490810468793,-0.001092975481303618,0.004087832467118913,0.14803851207413032,9.785860195516761,-0.3703302111342346
1560244962671494656,0.00020103955496794668,-0.001092975481303618,-0.0022572601801462006,0.14803851207413032,9.783043015344388,-0.3674822509315927
1560244962681517568,0.0023224281909827726,-2.9769236002535893e-05,0.0009152860857038758,0.14803851207413032,9.770882481689355,-0.35518885335906347
1560244962691540736,-0.0019203490810468793,-0.003219387971905782,-0.00014222933624614964,0.1403845121805533,9.766403457375873,-0.3506608919895484
1560244962701563392,-0.0008596547630394663,-0.001092975481303618,-0.00014222933624614964,0.12864987776019277,9.76678646517109,-0.3506608919895484
1560244962711586560,0.00020103955496794668,-0.0064090067078090285,0.0019728016232188617,0.12864987776019277,9.778947830511683,-0.3506608919895484
1560244962721609216,0.0023224281909827726,-0.0064090067078090285,-0.001199744758196175,0.12864987776019277,9.78061130550308,-0.3506608919895484
1560244962731631872,0.0023224281909827726,-0.001092975481303618,-0.00014222933624614964,0.12864987776019277,9.76844914448863,-0.3506608919895484
1560244962741655040,0.0023224281909827726,-2.9769236002535893e-05,0.0009152860857038758,0.12864987776019277,9.766403457375873,-0.3404355792727978
1560244962751678208,0.00020103955496794668,-0.004282594217206864,-0.003314775602096226,0.13145835006432724,9.769221794619884,-0.333840715867867
1560244962761700864,-0.0008596547630394663,-0.0021561817266047,0.0030303169296039267,0.1435760303189927,9.781382039007006,-0.34613381143286714
1560244962771724288,0.0023224281909827726,-0.004282594217206864,0.0030303169296039267,0.14803851207413032,9.778177011380246,-0.3506608919895484
1560244962781746688,0.004443817058822297,-0.007472213069296962,0.0009152860857038758,0.14803851207413032,9.766016706180631,-0.3506608919895484
1560244962791769600,0.0012617339888877088,-0.004282594217206864,0.0019728016232188617,0.14803851207413032,9.753856172525598,-0.3506608919895484
1560244962801792256,0.0023224281909827726,-0.0021561817266047,0.0030303169296039267,0.14803851207413032,9.752197643465948,-0.35596918692344304
1560244962811815424,-0.0008596547630394663,-2.9769236002535893e-05,0.0009152860857038758,0.14803851207413032,9.764358104804003,-0.3682625113888719
1560244962821838336,0.005504511492742059,-0.0021561817266047,0.0009152860857038758,0.14803851207413032,9.766403457375873,-0.3601054868693332
1560244962831861248,0.0012617339888877088,-0.001092975481303618,-0.001199744758196175,0.14803851207413032,9.766403457375873,-0.34781280697666334
1560244962841884416,-0.0008596547630394663,-0.001092975481303618,0.0009152860857038758,0.14803851207413032,9.766403457375873,-0.33551857821172965
1560244962851907328,0.00020103955496794668,-0.007472213069296962,0.0009152860857038758,0.14038262324191153,9.766403457375873,-0.3387583035059926
1560244962861929984,0.0012617339888877088,-0.0064090067078090285,-0.003314775602096226,0.12864987776019277,9.766403457375873,-0.3506608919895484
1560244962871952896,-0.004041737717061705,-0.003219387971905782,0.004087832467118913,0.12864987776019277,9.766403457375873,-0.3506608919895484
1560244962881975808,0.003383122624902535,0.0020966432545996283,-0.0022572601801462006,0.12864987776019277,9.766403457375873,-0.3506608919895484
1560244962891998720,0.0012617339888877088,-0.00959862579227283,0.0009152860857038758,0.12864987776019277,9.766403457375873,-0.3506608919895484
1560244962902021632,0.003383122624902535,-0.0021561817266047,0.0009152860857038758,0.13873422766013274,9.756283685547324,-0.3506608919895484
1560244962912045056,-0.0019203490810468793,-0.004282594217206864,-0.001199744758196175,0.14521479821767097,9.749780351568255,-0.3506608919895484
1560244962922018048,0.0012617339888877088,-0.0021561817266047,-0.00014222933624614964,0.13311895074038524,9.761918686488961,-0.3506608919895484
1560244962932041216,0.00020103955496794668,-2.9769236002535893e-05,0.0019728016232188617,0.13631348922090478,9.766403457375873,-0.3584354478030675
1560244962942064128,0.00020103955496794668,-0.004282594217206864,-0.00014222933624614964,0.14764502006071148,9.766403457375873,-0.3703302111342346
1560244962952086784,0.0012617339888877088,-0.004282594217206864,0.0019728016232188617,0.13552661913756023,9.766403457375873,-0.3703302111342346
1560244962962109696,0.004443817058822297,-0.008535419430784896,0.0019728016232188617,0.12864987776019277,9.761142494710572,-0.3650117680877821
1560244962972132864,-0.004041737717061705,0.003159849616087562,0.0019728016232188617,0.12864987776019277,9.748980225233026,-0.3527166157274376
1560244962982155520,0.0012617339888877088,-0.001092975481303618,0.0019728016232188617,0.1387418609698248,9.757074151185718,-0.3608989745351753
1560244962992178688,0.0012617339888877088,-0.005345800578694798,0.0019728016232188617,0.14803851207413032,9.766403457375873,-0.3703302111342346
1560244963002201600,0.00020103955496794668,-0.004282594217206864,-0.00014222933624614964,0.14803851207413032,9.766403457375873,-0.3703302111342346
1560244963012224768,0.0023224281909827726,-0.001092975481303618,0.0019728016232188617,0.1403668353303204,9.758704833373328,-0.36254747327835624
1560244963022247168,0.003383122624902535,0.00528626233906343,0.0009152860857038758,0.12905175357774457,9.747350006667231,-0.3506608919895484
1560244963032270080,-0.0008596547630394663,-0.004282594217206864,0.0030303169296039267,0.14117145183447183,9.759512276144779,-0.3506608919895484
1560244963042292992,0.00020103955496794668,0.001033437125485398,0.0009152860857038758,0.14803851207413032,9.766403457375873,-0.3506608919895484
1560244963052316160,0.003383122624902535,0.004223055977575496,0.0009152860857038758,0.14803851207413032,9.766403457375873,-0.3506608919895484
1560244963062338816,-0.0008596547630394663,-2.9769236002535893e-05,-0.00014222933624614964,0.15814246450660693,9.776542900592117,-0.3506608919895484
1560244963072361728,0.004443817058822297,-0.0021561817266047,-0.001199744758196175,0.1645930969368536,9.780172187051827,-0.35353596932739295
1560244963082385152,-0.0008596547630394663,-0.004282594217206864,0.0019728016232188617,0.15247365100271662,9.755848154514512,-0.3658308657123306
1560244963092407552,-0.0019203490810468793,-0.001092975481303618,0.0030303169296039267,0.14035535817587344,9.762367002177458,-0.3625358299717656
1560244963102430464,-0.0019203490810468793,-0.0021561817266047,-0.0022572601801462006,0.1278231366268497,9.785445372999753,-0.3506608919895484
1560244963112453376,0.0023224281909827726,-2.9769236002535893e-05,-0.00014222933624614964,0.1035859000538075,9.773284188470418,-0.3506608919895484
1560244963122476288,-0.0019203490810468793,-0.0064090067078090285,-0.001199744758196175,0.09513428751602702,9.766403457375873,-0.3506608919895484
1560244963132499456,0.00020103955496794668,-0.004282594217206864,-0.00014222933624614964,0.10725290462215153,9.766403457375873,-0.3506608919895484
1560244963142522368,-0.0019203490810468793,-0.0021561817266047,-0.00014222933624614964,0.10926123966921075,9.766403457375873,-0.3506608919895484
1560244963152545280,-0.0008596547630394663,-0.004282594217206864,0.0009152860857038758,0.11778165473991678,9.766403457375873,-0.3506608919895484
1560244963162568192,0.0012617339888877088,-0.003219387971905782,0.0009152860857038758,0.15413502215668431,9.766403457375873,-0.3506608919895484
1560244963172590848,0.0012617339888877088,-0.005345800578694798,-0.001199744758196175,0.16742714638806788,9.766403457375873,-0.3506608919895484
1560244963182614016,0.005504511492742059,-0.003219387971905782,-0.005429806445996277,0.16742714638806788,9.766403457375873,-0.350238326996213
1560244963192636928,0.0023224281909827726,-0.004282594217206864,0.0009152860857038758,0.16742714638806788,9.766403457375873,-0.33794475623162645
1560244963202659840,0.0023224281909827726,-0.007472213069296962,0.0019728016232188617,0.1621633394151376,9.766403457375873,-0.3256515865896421
1560244963212683008,0.00020103955496794668,-0.0064090067078090285,0.0030303169296039267,0.15004580326674266,9.766403457375873,-0.3133586467960057
1560244963222705408,0.00020103955496794668,-0.003219387971905782,0.0030303169296039267,0.10759858337918596,9.776548950772076,-0.32157862502412926
1560244963232728576,0.0023224281909827726,-2.9769236002535893e-05,0.0019728016232188617,0.07332340445787736,9.785860195516761,-0.3309915881717398
1560244963242751232,0.00020103955496794668,-0.007472213069296962,0.0009152860857038758,0.08544036531000182,9.785860195516761,-0.3309915881717398
1560244963252774400,0.003383122624902535,-2.9769236002535893e-05,0.0019728016232188617,0.12830053670676908,9.785860195516761,-0.338788429324745
1560244963262797312,-0.0019203490810468793,-0.005345800578694798,-0.0022572601801462006,0.1876442168572189,9.78544452989015,-0.3506608919895484
1560244963272820224,-0.0029810433990542923,-0.001092975481303618,-0.001199744758196175,0.21187942381360797,9.773284357811402,-0.3506608919895484
1560244963282843136,0.00020103955496794668,0.003159849616087562,0.0019728016232188617,0.20980926309491932,9.761123714775596,-0.3399860481311701
1560244963292865792,0.00020103955496794668,0.004223055977575496,0.0030303169296039267,0.17345406032546556,9.748962747188592,-0.3153984043791287
1560244963302888960,-0.0029810433990542923,0.001033437125485398,0.004087832467118913,0.15731714023230792,9.757092237438604,-0.3113222996808087
1560244963312911616,0.0012617339888877088,-2.9769236002535893e-05,-0.001199744758196175,0.13951881321029178,9.766403457375873,-0.31420330720328526
1560244963322934528,0.0012617339888877088,-0.005345800578694798,-0.001199744758196175,0.10316025669463116,9.766403457375873,-0.32649825758851675
1560244963332957696,0.003383122624902535,-0.008535419430784896,0.0019728016232188617,0.08218253206421328,9.774120541793053,-0.34659438202438725
1560244963342980352,0.0012617339888877088,-0.001092975481303618,-0.003314775602096226,0.07090398852547326,9.785017206163348,-0.3694780117548933
1560244963353003520,0.00020103955496794668,-0.007472213069296962,0.004087832467118913,0.08302314736323602,9.760693752204862,-0.34488881346559586
1560244963363026432,-0.0019203490810468793,-0.0021561817266047,0.0019728016232188617,0.10041190059852304,9.75223487631824,-0.3256456619171567
1560244963373049344,-0.0008596547630394663,-0.003219387971905782,0.004087832467118913,0.12465072289355997,9.764396856493468,-0.3133508211809886
1560244963383072256,0.00020103955496794668,-0.007472213069296962,0.0019728016232188617,0.12864987776019277,9.766403457375873,-0.3010555273253695
1560244963393095168,-0.0019203490810468793,-0.010661831689013357,0.0019728016232188617,0.13435233247194814,9.766403457375873,-0.29454549753219145
1560244963403118080,0.003383122624902535,-0.007472213069296962,-0.00014222933624614964,0.15859151281850878,9.766403457375873,-0.3068405306637522
1560244963413141248,0.004443817058822297,-0.007472213069296962,0.0030303169296039267,0.15972588628799123,9.774131768648129,-0.3269477803843515
1560244963423166464,0.00020103955496794668,-0.007472213069296962,0.005145348004633898,0.1484723493420827,9.785860195516761,-0.3506608919895484
1560244963433189632,0.003383122624902535,-0.007472213069296962,0.0019728016232188617,0.1605909664482072,9.785860195516761,-0.3506608919895484
1560244963443212544,-0.0008596547630394663,-0.0021561817266047,0.004087832467118913,0.1621446047901407,9.785860195516761,-0.34530188041929305
1560244963453235456,0.0012617339888877088,-0.003219387971905782,-0.001199744758196175,0.15002537502397284,9.785860195516761,-0.33300721291209123
1560244963463258368,-0.0008596547630394663,-0.008535419430784896,-0.001199744758196175,0.14803851207413032,9.765524583067677,-0.3104338163168083
1560244963473281024,-0.0019203490810468793,-0.004282594217206864,0.0009152860857038758,0.14803851207413032,9.746946719234984,-0.28584433829235645
1560244963483303936,0.00020103955496794668,-0.00959862579227283,0.0009152860857038758,0.14803851207413032,9.746946719234984,-0.2612531846556708
1560244963493327104,0.0012617339888877088,-0.003219387971905782,-0.001199744758196175,0.15575285569096584,9.754688159980695,-0.26014041376523406
1560244963503349760,0.00020103955496794668,0.0020966432545996283,0.0009152860857038758,0.16698230217902718,9.766403457375873,-0.2724349758105944
1560244963513372672,0.00020103955496794668,-0.004282594217206864,0.0030303169296039267,0.15486253179415208,9.766403457375873,-0.2847301917624896
1560244963523395584,0.0012617339888877088,-0.0021561817266047,0.0030303169296039267,0.142742840152986,9.771717730685761,-0.2916529958630001
1560244963533418496,0.003383122624902535,-0.0064090067078090285,0.005145348004633898,0.1306232499797057,9.783879891700213,-0.2916529958630001
1560244963543441408,0.0023224281909827726,-0.001092975481303618,0.0009152860857038758,0.12864987776019277,9.785860195516761,-0.281360666644707
1560244963553464576,0.0012617339888877088,-2.9769236002535893e-05,-0.0022572601801462006,0.13440258116083972,9.785860195516761,-0.2661477171664066
1560244963563487232,0.0012617339888877088,-0.003219387971905782,-0.00014222933624614964,0.15864154533407793,9.785860195516761,-0.2415578893670323
1560244963573510400,0.0012617339888877088,-0.004282594217206864,0.0009152860857038758,0.15970092219401089,9.778106832462536,-0.21696897732441003
1560244963583533056,0.00020103955496794668,-0.001092975481303618,-0.00014222933624614964,0.14803851207413032,9.766403457375873,-0.19330650742771205
1560244963593556224,-0.0019203490810468793,-0.003219387971905782,-0.001199744758196175,0.14803851207413032,9.766403457375873,-0.19330650742771205
1560244963603578880,0.00020103955496794668,-0.001092975481303618,0.0019728016232188617,0.14803851207413032,9.766403457375873,-0.18792460616038648
1560244963613602048,-0.0019203490810468793,-0.0021561817266047,-0.003314775602096226,0.14803851207413032,9.766403457375873,-0.17562917570828157
1560244963623624960,0.0023224281909827726,-0.003219387971905782,-0.00014222933624614964,0.1277258661316089,9.766403457375873,-0.1633338685734574
1560244963633647872,0.003383122624902535,-0.0021561817266047,-0.00014222933624614964,0.1121488785016337,9.769301238661194,-0.15103847276169693
1560244963643670784,0.0012617339888877088,-0.005345800578694798,-0.0022572601801462006,0.12426883146451594,9.781463761370222,-0.13874307877449146
1560244963653693696,0.004443817058822297,-0.003219387971905782,0.0009152860857038758,0.12864987776019277,9.770327094503605,-0.11859581893084668
1560244963663716608,0.003383122624902535,-0.008535419430784896,0.0030303169296039267,0.12864987776019277,9.747419728526035,-0.09448184219483836
1560244963673739520,0.003383122624902535,-0.0064090067078090285,0.0030303169296039267,0.12864987776019277,9.759581708701264,-0.0821869954708609
1560244963683762432,0.00020103955496794668,-0.007472213069296962,-0.00014222933624614964,0.12864987776019277,9.761063492372664,-0.07529072092219447
1560244963693785344,0.00020103955496794668,-0.008535419430784896,0.0009152860857038758,0.12864987776019277,9.748902777921424,-0.07529072092219447
1560244963703808256,0.003383122624902535,-0.005345800578694798,0.0019728016232188617,0.13881805860479146,9.767354513704586,-0.07529072092219447
1560244963713830912,0.005504511492742059,-0.008535419430784896,0.0019728016232188617,0.14803851207413032,9.785860195516761,-0.07529072092219447
1560244963723854080,0.00020103955496794668,-0.00959862579227283,0.0030303169296039267,0.14803851207413032,9.785860195516761,-0.07529072092219447
1560244963733876992,0.00020103955496794668,-0.012788244411989225,-0.00014222933624614964,0.14803851207413032,9.778089302391122,-0.07529072092219447
1560244963743900160,0.00020103955496794668,-0.010661831689013357,-0.00014222933624614964,0.1485118133577811,9.766403457375873,-0.07529072092219447
1560244963753922816,0.0023224281909827726,-0.012788244411989225,0.0019728016232188617,0.1606294215571689,9.766403457375873,-0.07529072092219447
1560244963763945728,0.0012617339888877088,-0.0064090067078090285,0.0019728016232188617,0.1780675479523606,9.766403457375873,-0.07529072092219447
1560244963773968896,0.00020103955496794668,-0.01172503805050129,-0.00014222933624614964,0.20230478688619596,9.766403457375873,-0.07529072092219447
1560244963783991296,0.00020103955496794668,-0.01172503805050129,-0.0022572601801462006,0.19603694517978554,9.776606652660703,-0.06497605831673223
1560244963794014464,0.003383122624902535,-0.0064090067078090285,0.0019728016232188617,0.18681579581018326,9.785860195516761,-0.06149852841479551
1560244963804037632,0.00020103955496794668,-0.007472213069296962,-0.001199744758196175,0.18681579581018326,9.785860195516761,-0.08608295805274557
1560244963814060544,0.00020103955496794668,-0.004282594217206864,0.0019728016232188617,0.17132990512583324,9.785860195516761,-0.08710499227557651
1560244963824083456,0.00020103955496794668,-0.001092975481303618,0.0009152860857038758,0.14851183446814,9.785385210547354,-0.07481054686246719
1560244963834106112,0.004443817058822297,-0.001092975481303618,0.006202863542148884,0.16062998314157068,9.773224496096114,-0.06251697969019232
1560244963844128768,0.0023224281909827726,0.003159849616087562,-0.00014222933624614964,0.1621063701144036,9.766403457375873,-0.05022362522458819
1560244963854152192,-0.0008596547630394663,-0.0021561817266047,0.0009152860857038758,0.14998746474431368,9.766403457375873,-0.03792929159946385
1560244963864175104,0.00020103955496794668,0.001033437125485398,0.0019728016232188617,0.15820819064511205,9.766403457375873,-0.06690280058586079
1560244963874198016,0.003383122624902535,-2.9769236002535893e-05,0.0030303169296039267,0.16162836921791066,9.775132030897238,-0.10672545587218134
1560244963884220928,0.004443817058822297,-0.004282594217206864,-0.0022572601801462006,0.13739387339762638,9.811610856055273,-0.15589606935146536
1560244963894243840,0.003383122624902535,0.003159849616087562,0.004087832467118913,0.15963272355105815,9.817000558759522,-0.19721072057637723
1560244963904266752,0.0012617339888877088,-0.004282594217206864,0.0019728016232188617,0.2038176433980258,9.804838847560701,-0.23119231733650236
1560244963914289152,-0.005102432150981467,-0.001092975481303618,-0.001199744758196175,0.1429728671374913,9.79262654049526,-0.19415698802017453
1560244963924245504,-0.004041737717061705,-0.004282594217206864,0.0009152860857038758,0.11991008500252118,9.775173946469149,-0.15203122405717248
1560244963934268160,-0.006163126353076531,-2.9769236002535893e-05,0.0030303169296039267,0.14414833071813674,9.75085056472333,-0.10285300701275521
1560244963944291328,-0.0029810433990542923,-0.004282594217206864,-0.003314775602096226,0.14803851207413032,9.746946719234984,-0.08463950791214792
1560244963954314240,-0.008284515220916056,-0.004282594217206864,-0.001199744758196175,0.14513624110652354,9.746946719234984,-0.08412357090297858
1560244963964337152,-0.005102432150981467,-0.005345800578694798,-0.00014222933624614964,0.1330189931963814,9.746946719234984,-0.1210015310124416
1560244963974360064,-0.0008596547630394663,-0.004282594217206864,-0.001199744758196175,0.12864987776019277,9.76249857180825,-0.1578812432944819
1560244963984382976,-0.0019203490810468793,-0.012788244411989225,-0.001199744758196175,0.1281716477484036,9.785860195516761,-0.19476196534733656
1560244963994405888,-0.005102432150981467,-0.01704106985794096,-0.001199744758196175,0.1160530282814859,9.785860195516761,-0.23164409370237804
1560244964004428544,-0.006163126353076531,-0.02342030709737375,-0.0022572601801462006,0.10926123966921075,9.796549376385366,-0.2523144035542604
1560244964014451712,-0.0029810433990542923,-0.01810427528993408,-0.003314775602096226,0.10926123966921075,9.820870054185665,-0.2523144035542604
1560244964024474624,-0.007223820786996293,-0.024483513458861683,-0.005429806445996277,0.09908784204734702,9.804354945944656,-0.22135240899575379
1560244964034497536,-0.008284515220916056,-0.02342030709737375,-0.003314775602096226,0.0927749919695344,9.785860195516761,-0.18741770613241812
1560244964044520704,-0.009345209654835818,-0.025546719820349617,-0.004372291139611212,0.10489180758656926,9.785860195516761,-0.16283327649446805
1560244964054543616,-0.008284515220916056,-0.027673132543325485,0.0019728016232188617,0.14025147120539844,9.762536273886303,-0.14610820487787365
1560244964064566016,-0.008284515220916056,-0.024483513458861683,-0.003314775602096226,0.18586396197708202,9.727968516009991,-0.13381580918123284
1560244964074589184,-0.0029810433990542923,-0.02129389437439788,-0.004372291139611212,0.16162707866782902,9.740128913260085,-0.12152194957652207
1560244964084612352,-0.007223820786996293,-0.02342030709737375,-0.003314775602096226,0.14803851207413032,9.746946719234984,-0.1200300623814152
1560244964094635264,-0.005102432150981467,-0.022357100735885815,-0.004372291139611212,0.14803851207413032,9.746946719234984,-0.13232253300704708
1560244964104658176,-0.005102432150981467,-0.026609924322847922,-0.005429806445996277,0.1276989353719617,9.716330700006067,-0.11366461114210753
1560244964114681344,-0.005102432150981467,-0.024483513458861683,-0.003314775602096226,0.10636235480159195,9.697304532212582,-0.09790086720324842
1560244964124704000,0.00020103955496794668,-0.02342030709737375,-0.0022572601801462006,0.09424600752083767,9.733780646036971,-0.11019260690645455
1560244964134726656,0.00020103955496794668,-0.02342030709737375,-0.00014222933624614964,0.0898726053552732,9.75471691923226,-0.15390475283981242
1560244964144749568,0.004443817058822297,-0.01704106985794096,0.0009152860857038758,0.09081513052187856,9.766403457375873,-0.2129758035820819
1560244964154772736,0.003383122624902535,-0.014914657134965092,-0.001199744758196175,0.11504984489746867,9.766403457375873,-0.2129758035820819
1560244964164795392,0.0012617339888877088,-0.013851450773477159,-0.001199744758196175,0.144601833221836,9.77707571253358,-0.21837009617177994
1560244964174818560,0.0012617339888877088,-0.013851450773477159,0.004087832467118913,0.18095769398338224,9.801398688074618,-0.23066414694001725
1560244964184841728,0.0023224281909827726,-0.005345800578694798,-0.0022572601801462006,0.19698170885378752,9.784914144327823,-0.25327125624445257
1560244964194864128,0.005504511492742059,-0.0064090067078090285,0.0009152860857038758,0.21778421825941818,9.766403457375873,-0.26610998432569394
1560244964204887040,0.00020103955496794668,-0.0021561817266047,0.0019728016232188617,0.26625609229965613,9.766403457375873,-0.24152322749805719
1560244964214910208,-0.0008596547630394663,-0.005345800578694798,-0.0022572601801462006,0.25278580532777883,9.758632969951293,-0.21693435441477724
1560244964224933120,0.0023224281909827726,-0.001092975481303618,-0.001199744758196175,0.20667779404443748,9.746471708517827,-0.19426695578376052
1560244964234956032,0.0023224281909827726,-0.001092975481303618,-0.006487321983511263,0.21879719928958685,9.73431033486465,-0.21885665641708663
1560244964244978944,0.00020103955496794668,0.003159849616087562,-0.003314775602096226,0.19365312936327592,9.74885902470968,-0.2542466270419542
1560244964255002368,0.0023224281909827726,-0.0021561817266047,-0.003314775602096226,0.12093645139749958,9.797507089784311,-0.3034261550985647
1560244964265024768,0.003383122624902535,-0.004282594217206864,-0.001199744758196175,0.10926123966921075,9.774689740465332,-0.3422845624534041
1560244964275047424,0.003383122624902535,-0.001092975481303618,-0.00014222933624614964,0.11507024929963507,9.755690984967096,-0.38211640229015686
1560244964285070592,0.0012617339888877088,0.008475880958779825,0.0009152860857038758,0.13930712552661384,9.792174602610801,-0.43129181675968553
1560244964295093760,0.0012617339888877088,0.001033437125485398,-0.0022572601801462006,0.12478027831008187,9.797537539884132,-0.4411423985651451
1560244964305116672,-0.0008596547630394663,-0.0021561817266047,-0.003314775602096226,0.09083709365840316,9.784408405596691,-0.4259135023227295
1560244964315139584,-0.0008596547630394663,-0.001092975481303618,-0.005429806445996277,0.11507267272312542,9.747927953444982,-0.33986109446999946
1560244964325162496,0.0023224281909827726,-0.003219387971905782,-0.00014222933624614964,0.11266160362499755,9.743535117109634,-0.2916529958630001
1560244964335185408,-0.0019203490810468793,-0.008535419430784896,-0.006487321983511263,0.07630661355741473,9.780017196400154,-0.2916529958630001
1560244964345208064,0.0012617339888877088,-2.9769236002535893e-05,-0.004372291139611212,0.09083735223245251,9.765435320862714,-0.3123010050810535
1560244964355230976,0.00020103955496794668,-0.005345800578694798,-0.001199744758196175,0.10635553889780887,9.752778533700049,-0.3427826404381555
1560244964365254144,0.00020103955496794668,-0.0064090067078090285,-0.004372291139611212,0.09423692179168436,9.777100902758717,-0.3919588147715002
1560244964375277056,0.005504511492742059,-0.004282594217206864,-0.001199744758196175,0.07436457903324031,9.801422305210856,-0.4568663319135402
1560244964385300224,0.005504511492742059,-0.004282594217206864,-0.0022572601801462006,0.05303114124482215,9.82525837764322,-0.5286664950177907
1560244964395323136,0.0023224281909827726,-0.004282594217206864,-0.00014222933624614964,0.10150013760644358,9.837418794581032,-0.5532517897839505
1560244964405345792,0.00020103955496794668,-0.007472213069296962,0.004087832467118913,0.09665702751848276,9.828177797908504,-0.5399765157529944
1560244964415368448,-0.0019203490810468793,-0.003219387971905782,-0.00014222933624614964,0.023917847891049185,9.791680461122782,-0.47848307247874405
1560244964425382912,-0.0019203490810468793,-0.007472213069296962,0.0009152860857038758,0.06319521308617437,9.765437852381607,-0.41706304859027443
1560244964435406080,-0.008284515220916056,-0.004282594217206864,0.005145348004633898,0.11216660954653948,9.73528456620288,-0.34969822404961415
1560244964445428736,-0.004041737717061705,-0.008535419430784896,0.0030303169296039267,0.12428476058067209,9.68664231485685,-0.26364324785650395
1560244964455451904,0.0012617339888877088,-0.008535419430784896,0.0019728016232188617,0.10539095108600327,9.67690094461182,-0.22477990527932729
1560244964465474816,0.003383122624902535,-0.010661831689013357,0.0030303169296039267,0.07192987984684915,9.689544801397846,-0.21688738041601538
1560244964475497728,0.010807983198691473,-2.9769236002535893e-05,-0.0022572601801462006,0.10828432940819407,9.713866230300324,-0.3152359321634611
1560244964485520896,0.007625899896932187,-0.005345800578694798,0.0019728016232188617,0.10733304211973008,9.75957825017796,-0.42439372496728084
1560244964495543296,0.008686594330851949,-0.010661831689013357,-0.00014222933624614964,0.05886923358440663,9.83252869790024,-0.5473070798077224
1560244964505566464,0.005504511492742059,-0.01172503805050129,0.0030303169296039267,0.07144594900632469,9.854441458397714,-0.6083135917952674
1560244964515589120,0.003383122624902535,-0.010661831689013357,-0.00014222933624614964,0.09858910263172152,9.854940179520884,-0.6339101632796437
1560244964525612288,0.0023224281909827726,-0.005345800578694798,0.0019728016232188617,0.13494603739726246,9.8184561475496,-0.5847324978913395
1560244964535635200,-0.0019203490810468793,-0.01810427528993408,0.0019728016232188617,0.14028467253076507,9.781974289714206,-0.5040945100446154
1560244964545658112,-0.0019203490810468793,-0.019167481651422014,0.0019728016232188617,0.12913274861893914,9.745493042479277,-0.4067296235504976
1560244964555681536,0.0023224281909827726,-0.008535419430784896,0.009375409692434,0.1412523747518083,9.709007057711098,-0.33295922504162945
1560244964565703936,-0.004041737717061705,-0.02129389437439788,0.0009152860857038758,0.1427064935058148,9.688577475126408,-0.2754253899880148
1560244964575727104,0.003383122624902535,-0.01704106985794096,-0.00014222933624614964,0.13058787639969027,9.688577475126408,-0.23854327121284144
1560244964585750016,0.006565205463012425,-0.014914657134965092,0.0009152860857038758,0.13883095033353582,9.688577475126408,-0.2842873588560904
1560244964595772928,0.006565205463012425,-0.013851450773477159,0.0009152860857038758,0.15094973314397162,9.703184564039745,-0.3546184920759011
1560244964605795840,0.010807983198691473,-0.007472213069296962,-0.00014222933624614964,0.1630682421602166,9.76398933786169,-0.45296995392628603
1560244964615818752,0.011868676705312442,-0.005345800578694798,0.0009152860857038758,0.19846787611702452,9.793648023693393,-0.5434535797676223
1560244964625841408,0.012929372066530997,-0.010661831689013357,0.004087832467118913,0.2420379393919155,9.806302576662151,-0.6275242365192345
1560244964635864832,0.010807983198691473,-0.007472213069296962,-0.0022572601801462006,0.16932450244967723,9.830624917777042,-0.6644072613448476
1560244964645887488,0.008686594330851949,-0.007472213069296962,0.0030303169296039267,0.13398857654152035,9.838872691456835,-0.6850389802579073
1560244964655910144,0.006565205463012425,0.00528626233906343,0.0030303169296039267,0.14610636489356563,9.826711732151736,-0.6850389802579073
1560244964665933312,0.004443817058822297,-0.005345800578694798,-0.001199744758196175,0.1378525826515412,9.824772701484449,-0.633372068483895
1560244964675956224,0.0023224281909827726,-0.005345800578694798,0.0019728016232188617,0.12281962359244647,9.815996748261677,-0.5689484937285264
1560244964685979392,-0.0008596547630394663,-0.004282594217206864,-0.00014222933624614964,0.09858310770081644,9.77951488595719,-0.495186430359608
1560244964696002304,-0.0019203490810468793,-0.004282594217206864,-0.001199744758196175,0.11316283772024914,9.750822486373883,-0.4371735050780791
1560244964706025216,-0.004041737717061705,-0.01172503805050129,-0.001199744758196175,0.14803851207413032,9.726995391273249,-0.39050047338490407
1560244964716047872,0.0023224281909827726,-0.00959862579227283,-0.001199744758196175,0.14803851207413032,9.714834062054045,-0.4027946560538371
1560244964726070784,0.00020103955496794668,-0.008535419430784896,0.0009152860857038758,0.14269553947512895,9.718757426144357,-0.4313500491462035
1560244964736093952,0.003383122624902535,-0.012788244411989225,-0.0022572601801462006,0.13057692236900442,9.743079188720651,-0.4805262138996801
1560244964746116864,0.006565205463012425,-0.013851450773477159,-0.00014222933624614964,0.10826548889702438,9.777631211832945,-0.5607240966314017
1560244964756140032,0.00020103955496794668,-0.008535419430784896,0.0030303169296039267,0.08402643772932707,9.811184459779412,-0.6378926455982485
1560244964766162688,0.003383122624902535,-0.00959862579227283,-0.003314775602096226,0.0597896335222735,9.835505788481866,-0.6870679522617259
1560244964776185600,0.003383122624902535,-0.013851450773477159,-0.0022572601801462006,0.05886745082438323,9.83643060380085,-0.7047082687488384
1560244964786208512,-0.0008596547630394663,-0.010661831689013357,-0.00014222933624614964,0.07199314334833608,9.823763076580521,-0.7011358872249498
1560244964796231424,0.00020103955496794668,-0.00959862579227283,0.0030303169296039267,0.10835170104448102,9.799439505829179,-0.6150711770448473
1560244964806254336,-0.005102432150981467,-0.010661831689013357,0.0030303169296039267,0.15006383952394206,9.764371285844186,-0.534437244184742
1560244964816277504,-0.0029810433990542923,-0.0064090067078090285,-0.003314775602096226,0.1985447998636491,9.715720644310716,-0.4606631158250123
1560244964826300160,-0.0008596547630394663,-0.004282594217206864,0.0030303169296039267,0.22661241888786626,9.708034213267297,-0.4490073650979589
1560244964836323328,-0.0008596547630394663,-0.003219387971905782,-0.00014222933624614964,0.23617732543457653,9.713924261602727,-0.4668709979694093
1560244964846346240,0.00020103955496794668,-2.9769236002535893e-05,-0.001199744758196175,0.19981910025533783,9.738247615431133,-0.5406400807083978
1560244964856369152,0.005504511492742059,-0.001092975481303618,-0.001199744758196175,0.17903075837643423,9.76257147281815,-0.6144095213572339
1560244964866392064,0.00020103955496794668,-0.007472213069296962,-0.0022572601801462006,0.1669116997639255,9.786377478476163,-0.6855618880701737
1560244964876414720,0.003383122624902535,-0.0021561817266047,-0.001199744758196175,0.1547929384743854,9.798539414184953,-0.6978560707391067
1560244964886437888,0.00020103955496794668,-0.005345800578694798,-0.00014222933624614964,0.1319423407129715,9.799933399074385,-0.6883791032997874
1560244964896460544,-0.0008596547630394663,0.006349468235803957,-0.001199744758196175,0.09558281080000025,9.78777037828583,-0.6514932646567348
1560244964906483712,0.00020103955496794668,-0.0021561817266047,0.0019728016232188617,0.11026963942707661,9.765391517542623,-0.6043157888800085
1560244964916506624,0.0012617339888877088,-2.9769236002535893e-05,-0.00014222933624614964,0.11991089494063868,9.744023638948775,-0.5581576769531464
1560244964926556928,-0.0008596547630394663,0.007412674597291891,0.0019728016232188617,0.08345536977730542,9.731829722433702,-0.5211744547172766
1560244964936580096,0.00020103955496794668,0.00528626233906343,0.004087832467118913,0.09387176022190599,9.735313874558813,-0.5317416233695532
1560244964946602752,0.0023224281909827726,-0.001092975481303618,0.0009152860857038758,0.1275971376559498,9.748003157053756,-0.5675571466579905
1560244964956625664,0.004443817058822297,0.0020966432545996283,0.0009152860857038758,0.10336047761089456,9.7723249475594,-0.5798508906197842
1560244964966648576,0.0012617339888877088,-2.9769236002535893e-05,-0.00014222933624614964,0.10062107353518637,9.785860195516761,-0.6085005778188162
1560244964976671744,0.0023224281909827726,-0.003219387971905782,0.0019728016232188617,0.1248575894268164,9.785860195516761,-0.6576753186633727
1560244964986694656,0.0023224281909827726,-0.007472213069296962,-0.0022572601801462006,0.10820440290663541,9.785860195516761,-0.6549989792777275
1560244964996717568,0.00020103955496794668,-0.0064090067078090285,0.005145348004633898,0.08691958510135925,9.785860195516761,-0.6427046284453871
1560244965006740480,0.00020103955496794668,-2.9769236002535893e-05,0.0009152860857038758,0.07480078663644883,9.785860195516761,-0.6304103709404216
1560244965016763392,-0.0019203490810468793,-0.007472213069296962,0.0009152860857038758,0.07828577786231074,9.770201770911658,-0.6022868193230215
1560244965026786560,0.0012617339888877088,-0.01172503805050129,0.0009152860857038758,0.0893404541995781,9.746946719234984,-0.565943449166029
1560244965036809728,-0.0008596547630394663,-0.005345800578694798,0.0019728016232188617,0.07722147555092054,9.746946719234984,-0.541354645212336
1560244965046832384,-0.0008596547630394663,-0.003219387971905782,0.0009152860857038758,0.08124640010798444,9.75234683631557,-0.5331436897005599
1560244965056855296,0.0012617339888877088,-0.00959862579227283,-0.001199744758196175,0.10548522122254755,9.7645088164908,-0.545438530436728
1560244965066878208,-0.0019203490810468793,-0.01172503805050129,-0.00014222933624614964,0.10926123966921075,9.756135965418338,-0.5577335255080531
1560244965076901120,0.0023224281909827726,-0.012788244411989225,0.0019728016232188617,0.11222394926196999,9.75289295067871,-0.5790455505764086
1560244965086924032,0.005504511492742059,-0.01172503805050129,0.0009152860857038758,0.1243431813890504,9.77721654936148,-0.6282242397659207
1560244965096946944,0.003383122624902535,-0.0064090067078090285,0.0030303169296039267,0.136461134411513,9.793699280628555,-0.6298517264163837
1560244965106970112,-0.005102432150981467,-0.008535419430784896,-0.001199744758196175,0.14749828933922415,9.804233636331896,-0.6052656790086606
1560244965116993024,-0.0019203490810468793,-0.00959862579227283,0.0009152860857038758,0.1353796001435356,9.779910516101683,-0.5806774407857918
1560244965127015936,-0.005102432150981467,-0.012788244411989225,-0.00014222933624614964,0.1340387644499257,9.760995641874516,-0.5560893736477752
1560244965137038592,-0.0008596547630394663,-0.012788244411989225,0.0009152860857038758,0.1461569851979194,9.748834855095547,-0.5315021050418858
1560244965147061760,-0.0029810433990542923,-0.005345800578694798,0.0019728016232188617,0.14803851207413032,9.746946719234984,-0.5069143008459591
1560244965157084416,-0.0008596547630394663,-0.0064090067078090285,0.0009152860857038758,0.14803851207413032,9.746946719234984,-0.4913548132902089
1560244965167107584,0.0023224281909827726,-0.010661831689013357,-0.0022572601801462006,0.14803851207413032,9.746946719234984,-0.5036486860670425
1560244965177130752,0.0023224281909827726,-0.003219387971905782,-0.00014222933624614964,0.15585277164865038,9.746946719234984,-0.5159426643494511
1560244965187153152,0.003383122624902535,-0.0064090067078090285,0.0009152860857038758,0.16742714638806788,9.748037324111596,-0.5271333209085284
1560244965197176064,0.0012617339888877088,-0.003219387971905782,0.004087832467118913,0.16742714638806788,9.772359837855829,-0.5148392113770192
1560244965207199488,-0.0029810433990542923,-0.007472213069296962,0.0019728016232188617,0.1728206343644691,9.78044776678394,-0.5025437278718567
1560244965217222144,0.0012617339888877088,-0.004282594217206864,-0.00014222933624614964,0.18494012589493491,9.768285714235812,-0.4902487948110657
1560244965227245056,0.0012617339888877088,-2.9769236002535893e-05,0.0009152860857038758,0.17657275205520584,9.766403457375873,-0.47795465087080485
1560244965237267968,0.0023224281909827726,0.003159849616087562,0.0019728016232188617,0.1614805297135805,9.766403457375873,-0.4626439585046678
1560244965247290880,-0.0008596547630394663,-0.001092975481303618,-0.001199744758196175,0.13724026806529438,9.766403457375873,-0.4380528144490469
1560244965257313792,0.003383122624902535,0.0020966432545996283,0.0009152860857038758,0.11300023760105875,9.766403457375873,-0.4134619064703054
1560244965267336704,0.0023224281909827726,0.00528626233906343,-0.001199744758196175,0.08931649450336038,9.766403457375873,-0.3905636602326984
1560244965277359872,0.0012617339888877088,0.00528626233906343,-0.0022572601801462006,0.07719650677642054,9.766403457375873,-0.40285908589432795
1560244965287382784,0.005504511492742059,0.007412674597291891,0.0019728016232188617,0.08129723332658019,9.771829080341993,-0.40966878811609675
1560244965297405696,0.00020103955496794668,0.009539087320267758,-0.0022572601801462006,0.1055349732679815,9.783990518031823,-0.40966878811609675
1560244965307428608,0.005504511492742059,-0.0021561817266047,0.0009152860857038758,0.11951697793771479,9.785860195516761,-0.3992645981083152
1560244965317451776,0.004443817058822297,-0.004282594217206864,0.0009152860857038758,0.13163627058230118,9.782863312797495,-0.38999949962516567
1560244965327474432,0.005504511492742059,0.003159849616087562,0.005145348004633898,0.14375539225966322,9.770701621924585,-0.38999949962516567
1560244965337497344,0.0023224281909827726,0.001033437125485398,-0.0022572601801462006,0.14020280446739442,9.774266688410316,-0.39794863059292446
1560244965347520256,-0.0019203490810468793,-0.003219387971905782,0.0009152860857038758,0.1275180691849068,9.78529230350917,-0.40909469231195283
1560244965357543424,0.0023224281909827726,-0.003219387971905782,-0.00014222933624614964,0.10327903072081018,9.773130214869768,-0.3967997419267214
1560244965367566080,-0.0008596547630394663,-2.9769236002535893e-05,-0.003314775602096226,0.08445687537684171,9.766403457375873,-0.39549362279207717
1560244965377589248,0.0023224281909827726,-0.00959862579227283,-0.001199744758196175,0.07233735614479339,9.766403457375873,-0.4077885731773086
1560244965387612160,0.003383122624902535,-0.007472213069296962,0.0030303169296039267,0.060219193571213206,9.766403457375873,-0.39925542896587735
1560244965397635072,-0.0029810433990542923,-0.00959862579227283,-0.00014222933624614964,0.06007819406856661,9.766403457375873,-0.38999949962516567
1560244965407657984,-0.0029810433990542923,-0.01172503805050129,0.0019728016232188617,0.09643426401643951,9.766403457375873,-0.38999949962516567
1560244965417680640,-0.0019203490810468793,-0.010661831689013357,-0.001199744758196175,0.12490566706545683,9.774253146338893,-0.382064058665859
1560244965427745792,0.0023224281909827726,-0.00959862579227283,0.0009152860857038758,0.14918356508798486,9.785285658197447,-0.3703302111342346
1560244965437768704,0.00020103955496794668,-0.007472213069296962,0.0019728016232188617,0.1734216736727941,9.773124039684529,-0.3703302111342346
1560244965447791616,0.0023224281909827726,-0.00959862579227283,-0.00014222933624614964,0.18681579581018326,9.766403457375873,-0.3648299724379522
1560244965457814784,0.00020103955496794668,-0.005345800578694798,-0.00014222933624614964,0.18681579581018326,9.766403457375873,-0.3525357340930079
