#timestamp [ns],w_RS_S_x [rad s^-1],w_RS_S_y [rad s^-1],w_RS_S_z [rad s^-1],a_RS_S_x [m s^-2],a_RS_S_y [m s^-2],a_RS_S_z [m s^-2]
1560116808888579328,0.0012617339888877088,-0.07445420687182569,0.0019728016232188617,0.06984958910945804,9.736900547054463,-0.5479974316128292
1560116808898601984,0.00020103955496794668,-0.08083344132277404,-0.00014222933624614964,0.09617031812083063,9.751159941552938,-0.5340734533124537
1560116808908624640,0.004443817058822297,-0.08295985776372916,-0.001199744758196175,0.13250121550500837,9.775465614642302,-0.5709302449672875
1560116808918647296,-0.0008596547630394663,-0.08295985776372916,0.006202863542148884,0.06487398879969422,9.758041664624008,-0.5726310567349521
1560116808928669696,-0.0019203490810468793,-0.07445420687182569,0.0030303169296039267,-0.08042888172763207,9.709437858176017,-0.5480633670469882
1560116808938692352,-0.0008596547630394663,-0.07551741509230325,0.007260378617404029,-0.20222907725765543,9.731637032470092,-0.46383943084315393
1560116808948715008,-0.0019203490810468793,-0.08083344132277404,0.006202863542148884,-0.2471355224096023,9.724456830028275,-0.3732914884190322
1560116808958737664,0.0023224281909827726,-0.07977024053825499,0.011490440767463972,-0.16235713103714045,9.66368873885514,-0.27499936059635577
1560116808968760064,0.003383122624902535,-0.07977024053825499,0.011490440767463972,0.015586193481699234,9.659013028888701,-0.2712167333652851
1560116808978782720,0.008686594330851949,-0.09571833410158437,0.012547955380459275,0.19701283382008555,9.677306920170421,-0.31234229130530033
1560116808988805632,0.009747288764771711,-0.0893390922146775,0.013605471842493944,0.2575684604478978,9.725920983584764,-0.43520672005213756
1560116808998828288,0.012929372066530997,-0.08295985776372916,0.012547955380459275,0.4143565227626098,9.802128309330572,-0.5511034749814034
1560116809008850432,0.011868676705312442,-0.0872126832096809,0.012547955380459275,0.644478888440531,9.899362268135826,-0.6616867397571272
1560116809018872832,0.011868676705312442,-0.0765806158768223,0.008317894154919014,0.6521430646692181,9.820356114742967,-0.6891248259197652
1560116809028895744,0.0012617339888877088,-0.08295985776372916,-0.00014222933624614964,0.6255553473012029,9.757509979794236,-0.6732402504064018
1560116809038918144,0.0023224281909827726,-0.07551741509230325,0.0019728016232188617,0.5528881304286571,9.733203106991631,-0.5872346230038045
1560116809048940544,-0.004041737717061705,-0.0765806158768223,-0.004372291139611212,0.5450758321273268,9.727490951408186,-0.45423852846567797
1560116809058963200,-0.0008596547630394663,-0.07764382409729986,-0.009659868133796379,0.5273733251861623,9.721507176120628,-0.3269588242212807
1560116809068985856,0.0012617339888877088,-0.06169573425194974,-0.008602353058541234,0.357816533003847,9.685045957750097,-0.3023857946591125
1560116809079008512,0.005504511492742059,-0.05744290508801875,-0.01177489920882635,0.26329544923423,9.703346041156134,-0.3539321807660595
1560116809089030912,0.010807983198691473,-0.05744290508801875,-0.010717383671311365,0.22696379426370672,9.764110880933984,-0.4645048925019173
1560116809099053312,0.009747288764771711,-0.048937257914094534,-0.008602353058541234,-0.0307755144519678,9.766403457375873,-0.5041420807792092
1560116809109076224,0.010807983198691473,-0.04149481152468937,-0.005429806445996277,-0.14845221667217512,9.792748027688127,-0.5543169662125522
1560116809119098624,0.008686594330851949,-0.051063666919091144,-0.006487321983511263,-0.0031212837896850976,9.865668729750167,-0.6280343299906039
1560116809129121536,0.004443817058822297,-0.04043160702219106,-0.003314775602096226,-0.05116708209723532,9.873903344884402,-0.6270173994439407
1560116809139143936,0.00020103955496794668,-0.0457476369706411,-0.003314775602096226,-0.14086166817104565,9.855942614628338,-0.5965753410578909
1560116809149166592,0.00020103955496794668,-0.04255801974516693,0.0009152860857038758,-0.12875082527582876,9.807329101524822,-0.5351445975730267
1560116809159189248,-0.0029810433990542923,-0.04362122796564449,0.005145348004633898,-0.0016737804728264999,9.77228728693596,-0.4394093420461624
1560116809169211392,-0.004041737717061705,-0.04255801974516693,0.008317894154919014,0.2163206622431874,9.747980603295073,-0.31654819489231956
1560116809179234048,-0.004041737717061705,-0.04255801974516693,0.005145348004633898,0.24896545188721342,9.700038323099358,-0.29946693379232886
1560116809189132544,-0.0029810433990542923,-0.0446844324681428,0.004087832467118913,0.25141653415787146,9.68212003525843,-0.28727255714648725
1560116809199155200,0.0012617339888877088,-0.04043160702219106,0.0030303169296039267,0.21508401490933196,9.718580170086069,-0.2749864027052831
1560116809209177600,0.003383122624902535,-0.035115573355761764,0.0030303169296039267,0.22450416380301555,9.745854513751091,-0.3648068955859233
1560116809219200000,0.0023224281909827726,-0.03405236885326346,0.0019728016232188617,0.2505940624556576,9.772035448093094,-0.4743702701663277
1560116809229222656,0.00020103955496794668,-0.02873633890481342,-0.00014222933624614964,0.28692582643849945,9.80849421892174,-0.5112279768646498
1560116809239245312,0.0012617339888877088,-0.030862751627789287,0.0030303169296039267,0.27633702739390104,9.811320665457643,-0.5072855662945192
1560116809249267968,0.00020103955496794668,-0.029799543407311724,0.0009152860857038758,0.22789870341162866,9.787017042864605,-0.4704309267177976
1560116809259290368,-0.007223820786996293,-0.02342030709737375,0.0019728016232188617,0.2717279941820725,9.751138031879263,-0.351669738365516
1560116809269313024,-0.0029810433990542923,-0.025546719820349617,-0.00014222933624614964,0.3031476016938086,9.701867628108033,-0.24176298275188796
1560116809279335680,0.00020103955496794668,-0.01172503805050129,-0.00014222933624614964,0.3031476016938086,9.628949048031417,-0.15576121066470322
1560116809289358336,-0.0008596547630394663,-0.015977862566958212,0.0030303169296039267,0.2395246047321734,9.65635565924871,-0.1250780471017738
1560116809299380992,0.008686594330851949,-0.007472213069296962,-0.001199744758196175,0.17105093778899766,9.709852473013914,-0.12933430635289206
1560116809309403392,0.008686594330851949,-0.01172503805050129,-0.0022572601801462006,0.19527312241626518,9.722006103951824,-0.22762555055606526
1560116809319426048,0.007625899896932187,-0.003219387971905782,-0.00014222933624614964,0.22614101980637957,9.75416644903495,-0.3124340796207463
1560116809329448448,0.011868676705312442,-0.003219387971905782,-0.008602353058541234,0.2624732146312093,9.802779528054163,-0.3861503384543007
1560116809339471104,0.010807983198691473,0.0020966432545996283,-0.00014222933624614964,0.1381070963704647,9.793798535799798,-0.42493338348894727
1560116809349493760,0.008686594330851949,0.004223055977575496,-0.0022572601801462006,0.0763005303846421,9.794291228839418,-0.47031574989009134
1560116809359516416,0.006565205463012425,0.009539087320267758,-0.0022572601801462006,0.14896880346211408,9.818598462830082,-0.531749251014271
1560116809369538560,0.006565205463012425,0.011665499113748812,-0.001199744758196175,0.16742714638806788,9.824772701484449,-0.5290256748626914
1560116809379561472,-0.005102432150981467,0.006349468235803957,-0.0022572601801462006,0.15689740956020393,9.821250548471921,-0.5026742082881992
1560116809389584128,-0.0008596547630394663,0.01379191183672468,-0.001199744758196175,0.08423669439773764,9.796945842572278,-0.4658179259574255
1560116809399606528,-0.0029810433990542923,0.011665499113748812,-0.0022572601801462006,0.07744433223687772,9.766029363227785,-0.40222914340460875
1560116809409629184,-0.005102432150981467,0.008475880958779825,0.0019728016232188617,0.12589200892002952,9.729566583725358,-0.31621843249418347
1560116809419651584,-0.008284515220916056,0.010602293681755692,-0.001199744758196175,0.19717573045071363,9.727490951408186,-0.2302181906062689
1560116809429674496,-0.0019203490810468793,0.015918324559700547,0.0019728016232188617,0.22840755767850637,9.715016689199963,-0.16523018436735704
1560116809439696896,-0.004041737717061705,0.015918324559700547,0.0009152860857038758,0.179963193142625,9.678555796386233,-0.1406573718206391
1560116809449719296,0.0012617339888877088,0.014855118198212613,0.0009152860857038758,0.15845006781713633,9.696146570398538,-0.18894078270976905
1560116809459741952,0.0012617339888877088,0.020171150005652283,-0.001199744758196175,0.1565369929042733,9.732607865322194,-0.2626602070180779
1560116809469764352,0.0023224281909827726,0.015918324559700547,0.0009152860857038758,0.21708938902928185,9.769066310596276,-0.3363749334607833
1560116809479787008,0.004443817058822297,0.026550388174579886,0.0009152860857038758,0.18618828074779925,9.798970962283157,-0.37695737244015726
1560116809489809408,0.0023224281909827726,0.03186641812302993,-0.001199744758196175,0.07718684319416158,9.823277979243507,-0.3892439553023373
1560116809499831808,0.004443817058822297,0.03186641812302993,0.0009152860857038758,0.1386840319403393,9.824772701484449,-0.3554058429989593
1560116809509854720,0.0012617339888877088,0.02974000540005406,0.0019728016232188617,0.19908526565258994,9.808356147835607,-0.30609742810940926
1560116809519877632,-0.0029810433990542923,0.02974000540005406,-0.001199744758196175,0.2354191796216611,9.759741362061892,-0.232377676428632
1560116809529900032,-0.0019203490810468793,0.028676799038566125,0.0009152860857038758,0.20929143628890984,9.720085453964348,-0.18582063527042528
1560116809539922432,0.0023224281909827726,0.02761359453606782,-0.001199744758196175,0.16413938438877138,9.688577475126408,-0.1556355887523063
1560116809549944832,0.0012617339888877088,0.03186641812302993,-0.00014222933624614964,0.13991792431789385,9.688577475126408,-0.16792163109342925
1560116809559967488,0.003383122624902535,0.0350560353485041,-0.003314775602096226,0.12864987776019277,9.71457767919703,-0.21306407610943237
1560116809569990144,0.004443817058822297,0.03930886451243509,0.004087832467118913,0.12864987776019277,9.763194198133101,-0.28678645596796626
1560116809580012800,0.004443817058822297,0.03718244807147997,-0.00014222933624614964,0.1738954066289701,9.789106249600145,-0.37197884022039623
1560116809590035456,0.0023224281909827726,0.03718244807147997,-0.0022572601801462006,0.1820043486840246,9.809365012909923,-0.441613269072079
1560116809600057856,0.0012617339888877088,0.04356168624040757,0.0009152860857038758,0.10934535961566591,9.821516167715606,-0.4784686555197153
1560116809610080512,0.00020103955496794668,0.046751303465881744,0.0030303169296039267,0.1962580245326807,9.81587699835715,-0.42538949104533547
1560116809620103168,-0.0019203490810468793,0.046751303465881744,-0.0022572601801462006,0.3145963045862552,9.803724256384053,-0.34582795950244555
1560116809630125568,-0.0019203490810468793,0.05100413262981274,-0.004372291139611212,0.25404263081649425,9.791570380541588,-0.3089698348724851
1560116809640148224,-0.005102432150981467,0.05206733713231104,-0.00014222933624614964,0.19348943718859113,9.766530689956952,-0.27862566356908763
1560116809650170880,-0.006163126353076531,0.05950977980373695,0.0009152860857038758,0.13293794548024923,9.730072786388963,-0.2540544595592396
1560116809660193792,-0.005102432150981467,0.058446575301238646,-0.0022572601801462006,0.1173965682832171,9.738783223482157,-0.2066495771047689
1560116809670215936,-0.007223820786996293,0.058446575301238646,-0.00014222933624614964,0.11721997443812429,9.742953573604673,-0.17767418193876683
1560116809680238336,-0.004041737717061705,0.05525695807576447,-0.00014222933624614964,0.1414688208163818,9.730787170556088,-0.18997411205853604
1560116809690242816,-0.0019203490810468793,0.06376260153170943,-0.004372291139611212,0.14803851207413032,9.73632956755976,-0.19330650742771205
1560116809700264960,-0.0029810433990542923,0.05632016257826278,0.0009152860857038758,0.1388584242431945,9.746946719234984,-0.19330650742771205
1560116809710287616,-0.006163126353076531,0.06588901797266455,-0.00014222933624614964,0.0661955486572635,9.746946719234984,-0.19330650742771205
1560116809720310016,-0.007223820786996293,0.06695222619314212,-0.0022572601801462006,0.09533758662054538,9.759717598107445,-0.212672104284033
1560116809730332928,-0.005102432150981467,0.06695222619314212,0.0009152860857038758,0.21646505353579615,9.784028183912525,-0.24953636466452914
1560116809740355072,-0.004041737717061705,0.06907864263409724,0.0019728016232188617,0.2591893016764055,9.797098841620043,-0.26367525691293825
1560116809750377728,-0.0008596547630394663,0.06695222619314212,0.0009152860857038758,0.22492401249524746,9.801381600674159,-0.27198369204519146
1560116809760400384,-0.004041737717061705,0.06907864263409724,-0.005429806445996277,0.04323713114058517,9.789225990740729,-0.27198369204519146
1560116809770423296,-0.009345209654835818,0.06801543441361968,-0.0022572601801462006,0.11556131837797427,9.803440133230016,-0.2808699132581682
1560116809780445696,-0.007223820786996293,0.05950977980373695,-0.001199744758196175,0.24211784288358737,9.821795355571266,-0.29014802156538666
1560116809790468096,-0.008284515220916056,0.06588901797266455,-0.001199744758196175,0.060446075589882936,9.79748797740998,-0.27786124655105837
1560116809800490496,-0.010405903625106183,0.06482580975218699,-0.001199744758196175,0.04937095087708818,9.792201887901305,-0.27198369204519146
1560116809810513408,-0.010405903625106183,0.06588901797266455,-0.0022572601801462006,0.19474120083298319,9.80435923233807,-0.27198369204519146
1560116809820535808,-0.01358798692686547,0.06907864263409724,-0.00014222933624614964,0.12809486284794375,9.74932939186661,-0.20406348957634549
1560116809830558208,-0.012527292492945707,0.05525695807576447,-0.00014222933624614964,0.06660076733827112,9.715827701793474,-0.12639201762062577
1560116809840580864,-0.012527292492945707,0.06695222619314212,-0.0022572601801462006,0.05448812818417684,9.740137464401137,-0.040376181903650624
1560116809850603520,-0.005102432150981467,0.07120505163909385,0.0030303169296039267,0.12085512101616415,9.703194145007796,-0.00743662733984486
1560116809860626176,-0.006163126353076531,0.060572984306235256,-0.0022572601801462006,0.1946508274153389,9.64966399884463,0.004851574326804485
1560116809870648576,-0.004041737717061705,0.06588901797266455,-0.001199744758196175,0.09774769901992203,9.64966399884463,0.017139805373533358
1560116809880670976,-0.0008596547630394663,0.06482580975218699,-0.00014222933624614964,0.08877836316208587,9.655966564149153,-0.008801329321290526
1560116809890693632,-0.0008596547630394663,0.058446575301238646,-0.0022572601801462006,0.16144771607005412,9.66812066480843,-0.07023573255927984
1560116809900716288,0.0023224281909827726,0.06482580975218699,-0.00014222933624614964,0.14519684329876267,9.724891151874285,-0.14294702566394887
1560116809910738944,0.003383122624902535,0.06376260153170943,-0.003314775602096226,0.14016515981841624,9.774107467623006,-0.22445842906970195
1560116809920761856,0.005504511492742059,0.06163619252671282,-0.004372291139611212,0.1765028675534152,9.798418298337559,-0.3227616593585184
1560116809930784000,0.0023224281909827726,0.06695222619314212,-0.003314775602096226,0.21283642527772106,9.796613459234504,-0.36825909668032136
1560116809940806656,0.005504511492742059,0.06269940074719038,0.0009152860857038758,0.23799945440855616,9.787261617762645,-0.3843328519569145
1560116809950829312,-0.0019203490810468793,0.07014184341861629,-0.006487321983511263,0.1774425593908685,9.799416143938114,-0.3351860529723999
1560116809960851968,-0.0008596547630394663,0.07545787708504559,-0.006487321983511263,0.16049965503854005,9.767803177992734,-0.2670769734121805
1560116809970874624,-0.0019203490810468793,0.06907864263409724,-0.004372291139611212,0.18472242059564056,9.694879657660476,-0.18107008236988922
1560116809980897024,-0.0008596547630394663,0.07439466886456803,-0.0022572601801462006,0.131494593304457,9.710783679517704,-0.12873960818920327
1560116809990919680,0.0023224281909827726,0.0722682524236129,-0.003314775602096226,0.0823003505864385,9.723691525377523,-0.10264188658520658
1560116810000942592,0.007625899896932187,0.06907864263409724,-0.006487321983511263,0.05808169430014503,9.711539663622883,-0.12721112210962732
1560116810010964992,0.008686594330851949,0.0775842860900422,-0.007544837521026249,0.02524669956559741,9.742619684318207,-0.18674423182827565
1560116810020987392,0.008686594330851949,0.0722682524236129,-0.005429806445996277,-0.013757204600979166,9.78183419208211,-0.25638445784578245
1560116810031009792,0.011868676705312442,0.07545787708504559,-0.00014222933624614964,-0.07431140256211913,9.745374663347544,-0.29324291159567606
1560116810041032448,0.009747288764771711,0.06588901797266455,-0.00014222933624614964,-0.0608186087959,9.752260591059967,-0.3050622374309005
1560116810051055104,0.005504511492742059,0.06907864263409724,-0.0022572601801462006,0.023962305682717316,9.800876993697072,-0.2927753527142303
1560116810061077248,0.003383122624902535,0.06269940074719038,-0.0022572601801462006,0.03170669674789384,9.80531790397174,-0.3028159438976056
1560116810071099904,0.0023224281909827726,0.06695222619314212,-0.00014222933624614964,0.020529023367841383,9.8127956738978,-0.3226617797449398
1560116810081122816,0.005504511492742059,0.06695222619314212,0.0009152860857038758,-0.015807058539367487,9.837104208534482,-0.3595238584965643
1560116810091145472,-0.0019203490810468793,0.06482580975218699,-0.00014222933624614964,0.042036084314559186,9.81845445358235,-0.37901605761829604
1560116810101167872,0.00020103955496794668,0.05950977980373695,0.0009152860857038758,0.12864987776019277,9.787150744534202,-0.37956283660001333
1560116810111190272,-0.0029810433990542923,0.05632016257826278,0.004087832467118913,0.12864987776019277,9.799306426596976,-0.2812599005506454
1560116810121213184,-0.007223820786996293,0.05313054163480935,0.0009152860857038758,0.09192024629975026,9.786888276079548,-0.20780423517147112
1560116810131235584,-0.005102432150981467,0.06163619252671282,-0.003314775602096226,0.019261257231391576,9.750430569364063,-0.1586637143237515
1560116810141258240,-0.004041737717061705,0.05206733713231104,0.0030303169296039267,0.06709079828527882,9.713968191725069,-0.15396791128725296
1560116810151281152,-0.004041737717061705,0.04781451168635931,-0.0022572601801462006,0.10190500233137487,9.70334144352473,-0.14650518810433566
1560116810161303552,-0.007223820786996293,0.04887771990683687,-0.001199744758196175,0.0776817414062137,9.751957528403333,-0.12193128128620204
1560116810171325952,-0.0029810433990542923,0.046751303465881744,-0.00014222933624614964,0.0619933046218751,9.732321931467045,-0.10601574518841499
1560116810181348608,-0.0008596547630394663,0.04356168624040757,-0.0022572601801462006,0.053466687920575705,9.693336784339612,-0.09255433726976108
1560116810191413248,0.00020103955496794668,0.0456881026813627,0.0009152860857038758,0.07779338991643356,9.742160473070166,-0.06787549201083196
1560116810201435648,0.0023224281909827726,0.0350560353485041,-0.0022572601801462006,0.0777272992488684,9.735933846061624,-0.06794253937952902
1560116810211458304,0.005504511492742059,0.03824565629195753,0.0009152860857038758,0.05350238094838232,9.675159433439287,-0.09251812756446637
1560116810221480704,0.004443817058822297,0.03611924356898166,-0.00014222933624614964,0.007467876611752841,9.72384606155208,-0.12815425991070614
1560116810231503360,0.004443817058822297,0.028676799038566125,-0.001199744758196175,-0.004682327169334755,9.762761228163907,-0.1723780098574979
1560116810241526016,0.009747288764771711,0.026550388174579886,-0.00014222933624614964,0.06799026778220593,9.750606585660725,-0.2338151555029656
1560116810251548416,0.008686594330851949,0.03824565629195753,0.0009152860857038758,0.030630143280625126,9.780918038589615,-0.2866572757842102
1560116810261570816,0.006565205463012425,0.026550388174579886,-0.001199744758196175,-0.04110807537392566,9.824772701484449,-0.3333957807488173
1560116810271593472,0.007625899896932187,0.026550388174579886,0.0019728016232188617,0.007336000694460505,9.824772701484449,-0.35796846432654295
1560116810281616128,0.005504511492742059,0.022297560869638522,0.0019728016232188617,0.037725220757424495,9.824772701484449,-0.3642245589219147
1560116810291638528,-0.0019203490810468793,0.018044737282676415,0.0009152860857038758,0.04983631189139484,9.824772701484449,-0.3519381394844186
1560116810301661440,-0.0029810433990542923,0.01910794364416435,0.0009152860857038758,0.06194814050370683,9.813882860074763,-0.2956113515581875
1560116810311684096,-0.006163126353076531,0.01379191183672468,-0.00014222933624614964,0.07405943406282557,9.794553654201783,-0.23055107239873945
1560116810321706752,-0.007223820786996293,0.00528626233906343,0.0009152860857038758,0.08617009346876314,9.758093455037375,-0.15683526262387937
1560116810331728896,-0.005102432150981467,0.010602293681755692,0.0009152860857038758,0.09828142531363246,9.738508783578547,-0.10870698497959756
1560116810341751808,-0.005102432150981467,0.009539087320267758,0.0019728016232188617,0.1103940537940546,9.72521736543624,-0.07299229671209721
1560116810351774464,-0.006163126353076531,0.009539087320267758,-0.00014222933624614964,0.12250525424679765,9.700909886522552,-0.048419265953178525
1560116810361796864,-0.0019203490810468793,0.007412674597291891,-0.001199744758196175,0.12268287959960208,9.700553388045405,-0.04200549947305718
1560116810371819520,0.00020103955496794668,-2.9769236002535893e-05,0.0009152860857038758,0.1105702392656936,9.724863756836212,-0.0542934749781456
1560116810381842432,0.0012617339888877088,0.007412674597291891,0.0009152860857038758,0.14166820606341976,9.727490951408186,-0.09945619256615969
1560116810391864576,0.003383122624902535,0.006349468235803957,0.0009152860857038758,0.16742714638806788,9.734563954944804,-0.14859951964451992
1560116810401887232,0.004443817058822297,0.008475880958779825,0.0030303169296039267,0.16742714638806788,9.758871911343789,-0.19774777208567335
1560116810411909888,0.0023224281909827726,0.00528626233906343,0.0019728016232188617,0.18414525492313472,9.774791871725848,-0.2129758035820819
1560116810421932544,0.00020103955496794668,0.01272870640473156,-0.001199744758196175,0.20945113322276793,9.784774157346792,-0.21407370719218097
1560116810431954944,0.003383122624902535,0.01272870640473156,0.0019728016232188617,0.24578818745840791,9.772619262098932,-0.2263613999658055
1560116810441977600,-0.0029810433990542923,0.020171150005652283,-0.004372291139611212,0.2525334997837861,9.772342660522636,-0.22664102353482216
1560116810452000000,-0.0029810433990542923,0.01910794364416435,-0.001199744758196175,0.2283095106556214,9.784497194512241,-0.21435369596635642
1560116810462022656,-0.005102432150981467,0.02974000540005406,0.0009152860857038758,0.19333052087516522,9.764276293740688,-0.169336404850173
1560116810472045056,0.0012617339888877088,0.02442397545160402,0.0019728016232188617,0.17438267802573043,9.746946719234984,-0.12371429061436039
1560116810482067712,-0.0019203490810468793,0.026550388174579886,-0.001199744758196175,0.19860918257891794,9.746946719234984,-0.08684849810585599
1560116810492090112,-0.005102432150981467,0.028676799038566125,0.0009152860857038758,0.18125777515888544,9.738602378435532,-0.05841887912681172
1560116810502112768,0.0012617339888877088,0.03292962634350749,0.0009152860857038758,0.15011821273696416,9.727490951408186,-0.03806193152664725
1560116810512135424,0.00020103955496794668,0.03824565629195753,0.0009152860857038758,0.1743427781191224,9.727490951408186,-0.06263715330655734
1560116810522157824,0.003383122624902535,0.03930886451243509,0.0019728016232188617,0.19856536124515603,9.745176919103017,-0.08721037400534813
1560116810532180480,-0.0008596547630394663,0.03930886451243509,0.0009152860857038758,0.22278702816136753,9.781636447837583,-0.11178267570746728
1560116810542203136,0.00020103955496794668,0.0456881026813627,0.0009152860857038758,0.18275537596501618,9.785860195516761,-0.15808709402042578
1560116810552225792,-0.0019203490810468793,0.046751303465881744,-0.001199744758196175,0.14803851207413032,9.792750987924414,-0.19330650742771205
1560116810562248448,0.005504511492742059,0.042498481737909266,0.0009152860857038758,0.14803851207413032,9.817060750532077,-0.19330650742771205
1560116810572270848,-0.0008596547630394663,0.049940924409335175,-0.00014222933624614964,0.13976799912239854,9.808173988064043,-0.15974557108820275
1560116810582293504,-0.0029810433990542923,0.042498481737909266,-0.001199744758196175,0.12466760875448588,9.783862067220332,-0.10856944513719265
1560116810592316160,-0.0019203490810468793,0.0414352735174317,-0.0022572601801462006,0.07621417186247241,9.759550253233272,-0.03483720316829943
1560116810602338816,-0.0029810433990542923,0.042498481737909266,-0.003314775602096226,0.04526229028739019,9.73523994909075,0.027056384628408894
1560116810612361728,-0.0019203490810468793,0.0414352735174317,-0.00014222933624614964,0.03314990300616916,9.71093069198562,0.07620726457333953
1560116810622383616,-0.004041737717061705,0.03718244807147997,-0.00014222933624614964,0.04237535944212731,9.718740349283653,0.07124056149446767
1560116810632406528,0.0012617339888877088,0.0350560353485041,-0.001199744758196175,0.05448826505206058,9.72408610174556,0.05551027133565292
1560116810642428928,0.004443817058822297,0.0350560353485041,0.0019728016232188617,0.06660007608801978,9.711931748377028,0.030935995749329433
1560116810652451840,-0.0008596547630394663,0.025487179954102324,-0.001199744758196175,0.07871209654977682,9.724547858326902,-0.0019859366740455422
1560116810662474752,0.004443817058822297,0.02761359453606782,-0.001199744758196175,0.09177511276190367,9.747901314185226,-0.03884719757747271
1560116810672496896,0.005504511492742059,0.026550388174579886,0.0030303169296039267,0.11599491934734243,9.760053753109633,-0.07570280009308042
1560116810682519296,0.007625899896932187,0.028676799038566125,0.0019728016232188617,0.1112557373115317,9.766403457375873,-0.10084199593306696
1560116810692503040,0.005504511492742059,0.01910794364416435,-0.0022572601801462006,0.0749692016024856,9.766403457375873,-0.11311259745697588
1560116810702525440,0.004443817058822297,0.021234356367140217,-0.001199744758196175,0.09172747020809946,9.777062516967332,-0.13618033024111767
1560116810712548096,0.004443817058822297,0.021234356367140217,-0.00014222933624614964,0.09587601614355876,9.785860195516761,-0.15057316591578457
1560116810722571008,0.0023224281909827726,0.01910794364416435,0.004087832467118913,0.04742574820874865,9.785860195516761,-0.1382852633265681
1560116810732593408,-0.0008596547630394663,0.014855118198212613,-0.001199744758196175,0.05626067868142278,9.769433377532312,-0.1176923383283172
1560116810742615808,0.00020103955496794668,0.008475880958779825,-0.00014222933624614964,0.08896121929947834,9.746946719234984,-0.09403544008954039
1560116810752638208,0.0023224281909827726,0.006349468235803957,-0.00014222933624614964,0.07684868827594102,9.746946719234984,-0.0817475730833694
1560116810762660864,-0.0008596547630394663,0.01272870640473156,-0.00014222933624614964,0.07048396915281341,9.752714955543526,-0.06945946809498986
1560116810772683520,-0.005102432150981467,0.008475880958779825,0.0009152860857038758,0.07048396915281341,9.764869598046708,-0.05717203920526419
1560116810782705920,0.003383122624902535,0.008475880958779825,-0.001199744758196175,0.08106681783607471,9.755783436789343,-0.06635746446982738
1560116810792728320,0.0012617339888877088,0.00528626233906343,0.0019728016232188617,0.09317745019747566,9.750263172557577,-0.0819960903901629
1560116810802751232,0.0023224281909827726,0.004223055977575496,0.0030303169296039267,0.10528695706763598,9.762415214850655,-0.10656569093613386
1560116810812773888,0.003383122624902535,0.0020966432545996283,0.0019728016232188617,0.11739617746842665,9.766403457375873,-0.13113470623047527
1560116810822796544,0.004443817058822297,-0.0021561817266047,0.0030303169296039267,0.12864987776019277,9.766403457375873,-0.15657209037570627
1560116810832818688,0.003383122624902535,-0.0021561817266047,-0.00014222933624614964,0.12864987776019277,9.766403457375873,-0.19343043117106756
1560116810842841600,0.0012617339888877088,-2.9769236002535893e-05,-0.001199744758196175,0.12864987776019277,9.772113118789147,-0.21874784553366336
1560116810852864256,0.0012617339888877088,-0.001092975481303618,-0.003314775602096226,0.12864987776019277,9.784267400057692,-0.23103491761998
1560116810862886656,-0.0029810433990542923,-0.001092975481303618,0.0019728016232188617,0.1391742638008429,9.775298841892212,-0.21129164135521525
1560116810872909312,-0.0019203490810468793,0.0020966432545996283,-0.00014222933624614964,0.15453404708977542,9.763144283145294,-0.18342216810138334
1560116810882931712,-0.0008596547630394663,0.00528626233906343,0.005145348004633898,0.17875803621794006,9.75098974915569,-0.14656021172621653
1560116810892954624,-0.0019203490810468793,0.0020966432545996283,-0.00014222933624614964,0.18681579581018326,9.738835644117986,-0.1342986151328831
1560116810902977024,-0.0008596547630394663,0.006349468235803957,-0.001199744758196175,0.18601026423741387,9.727490951408186,-0.13348142357586265
1560116810912999936,0.00020103955496794668,0.004223055977575496,0.0009152860857038758,0.17389876860520626,9.727490951408186,-0.12119461532636966
1560116810923022336,0.003383122624902535,0.009539087320267758,-0.003314775602096226,0.15050951821952288,9.733149686299368,-0.12607099737517394
1560116810933044736,0.003383122624902535,0.004223055977575496,0.0019728016232188617,0.1141773257539499,9.745302349966513,-0.15064307846730732
1560116810943067392,0.003383122624902535,0.009539087320267758,0.0019728016232188617,0.10926123966921075,9.746946719234984,-0.1858401346061782
1560116810953090048,0.003383122624902535,0.00528626233906343,-0.001199744758196175,0.10606633982312277,9.750152841372582,-0.21945810063103302
1560116810963112704,0.005504511492742059,0.008475880958779825,-0.001199744758196175,0.09395539350845254,9.76230632816631,-0.24403062413336452
1560116810973135360,0.0023224281909827726,0.0020966432545996283,-0.00014222933624614964,0.0898726053552732,9.774459835292776,-0.2767475797544249
1560116810983157760,0.004443817058822297,0.010602293681755692,0.0009152860857038758,0.09062347517474566,9.786613740392506,-0.31056056028402146
1560116810993180416,0.0012617339888877088,0.006349468235803957,0.004087832467118913,0.10273622127635837,9.7987696394836,-0.2982724702987804
1560116811003202816,0.00020103955496794668,0.00528626233906343,-0.00014222933624614964,0.10926123966921075,9.799710847684116,-0.28598496491783465
1560116811013225472,0.0012617339888877088,-0.001092975481303618,0.005145348004633898,0.10926123966921075,9.787555237750688,-0.27369716723474125
1560116811023247872,-0.0029810433990542923,0.003159849616087562,-0.001199744758196175,0.10926123966921075,9.76494223598732,-0.24026397073704553
1560116811033270784,-0.0029810433990542923,-2.9769236002535893e-05,0.0030303169296039267,0.10926123966921075,9.743789916887899,-0.203401457580879
1560116811043293184,-0.0008596547630394663,0.001033437125485398,0.004087832467118913,0.10926123966921075,9.73163544718059,-0.16653785775924806
1560116811053315840,0.00020103955496794668,-2.9769236002535893e-05,0.0019728016232188617,0.10926123966921075,9.719479931679636,-0.14586937398884522
1560116811063338240,-0.0008596547630394663,-0.0021561817266047,0.0019728016232188617,0.10926123966921075,9.709453829009657,-0.13501619529811543
1560116811073360896,0.003383122624902535,-2.9769236002535893e-05,0.0019728016232188617,0.10926123966921075,9.733762507859904,-0.14730362299100175
1560116811083383552,0.004443817058822297,-0.001092975481303618,-0.001199744758196175,0.10926123966921075,9.752509339659332,-0.17083808266439546
1560116811093406208,0.0023224281909827726,-0.0021561817266047,-0.00014222933624614964,0.10926123966921075,9.764664524054735,-0.20770201157344612
1560116811103428608,-0.0008596547630394663,-0.007472213069296962,-0.00014222933624614964,0.11964043645265374,9.766403457375873,-0.23403468705705344
1560116811113451264,0.003383122624902535,-0.003219387971905782,-0.00014222933624614964,0.13175280840258827,9.769517287262026,-0.2617579469245502
1560116811123473920,-0.0008596547630394663,-0.005345800578694798,-0.003314775602096226,0.14386544637686835,9.781672471657428,-0.29862187822738623
1560116811133496576,0.0012617339888877088,-0.004282594217206864,0.0030303169296039267,0.14009917577084688,9.777892971783299,-0.3113222996808087
1560116811143518976,0.0023224281909827726,-0.003219387971905782,0.0030303169296039267,0.12864987776019277,9.766403457375873,-0.3099776698369721
1560116811153541376,0.004443817058822297,-0.0021561817266047,0.0009152860857038758,0.12864987776019277,9.766403457375873,-0.2854019286433381
1560116811163564032,-0.0008596547630394663,-0.0021561817266047,-0.00014222933624614964,0.12864987776019277,9.760884869390006,-0.26082594315936986
1560116811173586688,0.0012617339888877088,-2.9769236002535893e-05,0.0030303169296039267,0.12864987776019277,9.748729865630711,-0.23625036694318163
1560116811183609600,-0.0008596547630394663,-0.003219387971905782,0.0009152860857038758,0.12864987776019277,9.736575552363005,-0.20119013356788518
1560116811193633024,-0.0029810433990542923,-0.004282594217206864,0.004087832467118913,0.13170960339639726,9.724420478288591,-0.17674122823065627
1560116811203655936,0.005504511492742059,-0.003219387971905782,0.0009152860857038758,0.14382144953767786,9.712266088507551,-0.18902840044049868
1560116811213678080,0.00020103955496794668,-0.0064090067078090285,0.0009152860857038758,0.1401437716029155,9.715956684522958,-0.20131552889234341
1560116811223700992,-0.0008596547630394663,0.0020966432545996283,-0.001199744758196175,0.12864987776019277,9.728112307722885,-0.214232155308816
1560116811233723648,0.004443817058822297,-0.0021561817266047,-0.00014222933624614964,0.12864987776019277,9.740267066567613,-0.23880847633647936
1560116811243746048,0.0012617339888877088,-0.004282594217206864,0.0009152860857038758,0.12864987776019277,9.75789673667287,-0.26891886949505683
1560116811253768704,0.004443817058822297,-0.0064090067078090285,-0.00014222933624614964,0.12864987776019277,9.782207105463678,-0.3057828007978929
1560116811263791104,0.0023224281909827726,0.001033437125485398,0.0009152860857038758,0.12864987776019277,9.796188293384535,-0.33220311574839445
1560116811273813760,0.0012617339888877088,-0.005345800578694798,-0.001199744758196175,0.12262044438615056,9.80229244731982,-0.35371925174361435
1560116811283836416,0.004443817058822297,-0.001092975481303618,0.0019728016232188617,0.09839552608566449,9.79013683738639,-0.3660070590017071
1560116811293859328,-0.0008596547630394663,-0.005345800578694798,-0.001199744758196175,0.09772447493320151,9.77798074574116,-0.3703302111342346
1560116811303881728,0.0012617339888877088,-0.0021561817266047,0.0030303169296039267,0.10926123966921075,9.765825162290692,-0.36857637218480893
1560116811313904128,-0.0008596547630394663,-0.005345800578694798,0.0009152860857038758,0.10926123966921075,9.753670267042832,-0.331713308226306
1560116811323926784,0.0012617339888877088,-0.003219387971905782,0.0019728016232188617,0.10926123966921075,9.746946719234984,-0.30034116074871764
1560116811333949440,0.00020103955496794668,-0.00959862579227283,-0.001199744758196175,0.10926123966921075,9.746946719234984,-0.2757670261505145
1560116811343971840,0.00020103955496794668,-0.00959862579227283,0.0009152860857038758,0.11950800107527441,9.736664480226887,-0.27198369204519146
1560116811353994752,-0.0008596547630394663,-0.007472213069296962,0.004087832467118913,0.12864987776019277,9.730471335637025,-0.278009882675418
1560116811364016896,0.00020103955496794668,-0.004282594217206864,0.004087832467118913,0.12864987776019277,9.742625335583039,-0.30258467403477013
1560116811374039808,0.0023224281909827726,-0.0021561817266047,-0.0022572601801462006,0.14426185711845682,9.746946719234984,-0.32716027158648653
1560116811384062208,0.0012617339888877088,-0.007472213069296962,-0.001199744758196175,0.16689815328922566,9.74747757045616,-0.3522708439502032
1560116811394084864,0.0012617339888877088,-0.004282594217206864,-0.0022572601801462006,0.15478605531039716,9.759632212959344,-0.38913313181621956
1560116811404107264,0.0023224281909827726,-0.005345800578694798,-0.001199744758196175,0.14803851207413032,9.766403457375873,-0.42055181028983607
1560116811414129920,0.0012617339888877088,-0.004282594217206864,-0.00014222933624614964,0.14803851207413032,9.766403457375873,-0.445124830278001
1560116811424152576,0.003383122624902535,-0.001092975481303618,-0.00014222933624614964,0.1378410336543004,9.766403457375873,-0.4386622762344543
1560116811434174976,-0.0019203490810468793,-0.0021561817266047,-0.00014222933624614964,0.1257301728978828,9.766403457375873,-0.4263761090373789
1560116811444197120,0.0012617339888877088,-2.9769236002535893e-05,-0.001199744758196175,0.11361918872657217,9.766403457375873,-0.41408981845540105
1560116811454220032,0.004443817058822297,0.004223055977575496,0.0019728016232188617,0.10926123966921075,9.758622670238088,-0.3860714165585135
1560116811464242944,-0.0019203490810468793,-0.005345800578694798,0.0009152860857038758,0.10926123966921075,9.746946719234984,-0.35017780986648234
1560116811474265344,0.0012617339888877088,0.00528626233906343,-0.00014222933624614964,0.10926123966921075,9.746946719234984,-0.33789267785962956
1560116811484288000,-0.0008596547630394663,0.001033437125485398,-0.001199744758196175,0.10926123966921075,9.741621076041246,-0.3256074977924789
1560116811494310656,0.00020103955496794668,-2.9769236002535893e-05,-0.003314775602096226,0.10926123966921075,9.729469567759745,-0.3133226306972026
1560116811504333312,0.004443817058822297,-0.003219387971905782,-0.0022572601801462006,0.1193993325350592,9.737664145630434,-0.3318919910725549
1560116811514355712,-0.0008596547630394663,0.001033437125485398,-0.003314775602096226,0.12579055780398182,9.749816082177752,-0.3506608919895484
1560116811524378112,0.004443817058822297,0.0020966432545996283,0.0019728016232188617,0.11368000536073351,9.761969171349053,-0.3506608919895484
1560116811534401024,0.00020103955496794668,-0.0064090067078090285,0.0019728016232188617,0.10926123966921075,9.774123412277424,-0.3740737731021863
1560116811544423680,0.00020103955496794668,-0.004282594217206864,-0.003314775602096226,0.10926123966921075,9.785860195516761,-0.40966878811609675
1560116811554446080,0.0012617339888877088,-0.005345800578694798,0.004087832467118913,0.10926123966921075,9.785860195516761,-0.40966878811609675
1560116811564468736,-0.0019203490810468793,-0.0021561817266047,-0.001199744758196175,0.10926123966921075,9.785860195516761,-0.40434397248709375
1560116811574491136,0.0012617339888877088,-0.001092975481303618,0.0019728016232188617,0.10926123966921075,9.785860195516761,-0.3920576450590226
1560116811584513792,-0.0029810433990542923,-2.9769236002535893e-05,0.0030303169296039267,0.1193430433838306,9.775742980788078,-0.3695440081807611
1560116811594536192,-0.0029810433990542923,-0.005345800578694798,-0.00014222933624614964,0.1314542584021442,9.763589226166271,-0.34497094060019523
1560116811604558848,-0.0029810433990542923,-2.9769236002535893e-05,0.0030303169296039267,0.14356671637259058,9.751434222406978,-0.3203953548090077
1560116811614581760,-0.0008596547630394663,-0.0021561817266047,0.004087832467118913,0.14039733456560277,9.739279084004874,-0.29581871758137296
1560116811624604416,0.0012617339888877088,0.0020966432545996283,0.0019728016232188617,0.12864987776019277,9.72785754496795,-0.27198369204519146
1560116811634626304,0.00020103955496794668,-0.005345800578694798,0.0009152860857038758,0.12864987776019277,9.74001035276347,-0.27198369204519146
1560116811644649216,0.00020103955496794668,-2.9769236002535893e-05,-0.00014222933624614964,0.12345012813351611,9.746946719234984,-0.282533732197956
1560116811654671872,0.003383122624902535,0.0020966432545996283,0.0019728016232188617,0.1113380277951644,9.746946719234984,-0.3071085971584434
1560116811664694528,0.00020103955496794668,-2.9769236002535893e-05,-0.00014222933624614964,0.10926123966921075,9.757016231708196,-0.33168133638383107
1560116811674717184,0.0012617339888877088,-0.003219387971905782,0.0009152860857038758,0.11200706180408909,9.766403457375873,-0.3478753219279923
1560116811684739584,-0.0019203490810468793,-0.005345800578694798,-0.003314775602096226,0.1240708290578392,9.766403457375873,-0.33563692219161745
1560116811694823680,0.0023224281909827726,-2.9769236002535893e-05,-0.001199744758196175,0.12106174178627718,9.766403457375873,-0.3386895683589717
1560116811704846336,0.0012617339888877088,-0.003219387971905782,-0.00014222933624614964,0.10957120898137492,9.76609239933713,-0.35034643562873835
1560116811714868736,0.00020103955496794668,-0.001092975481303618,0.006202863542148884,0.12168104167230875,9.75394003244618,-0.3380613036218855
1560116811724891648,0.005504511492742059,0.001033437125485398,0.0009152860857038758,0.12350799941475671,9.74178703804371,-0.3205589701104265
1560116811734914304,0.00020103955496794668,-0.001092975481303618,0.0019728016232188617,0.1113971588788176,9.729634265860904,-0.295986670801737
1560116811744936704,-0.0008596547630394663,-0.0064090067078090285,-0.00014222933624614964,0.11923572469356508,9.73749997132568,-0.28153412235318614
1560116811754959616,-0.0008596547630394663,-0.0021561817266047,-0.001199744758196175,0.1259532424259727,9.746946719234984,-0.27198369204519146
1560116811764982272,0.0012617339888877088,-0.004282594217206864,-0.00014222933624614964,0.11384330158846133,9.746946719234984,-0.27198369204519146
1560116811775004672,0.003383122624902535,-0.004282594217206864,0.004087832467118913,0.10173365028866692,9.746946719234984,-0.27198369204519146
1560116811785027072,0.003383122624902535,-0.005345800578694798,-0.001199744758196175,0.09061844398799943,9.746946719234984,-0.27248811559822084
1560116811795049728,0.0023224281909827726,-0.0021561817266047,-0.00014222933624614964,0.1269493413721772,9.746946719234984,-0.29705932918136096
1560116811805072384,0.00020103955496794668,-0.005345800578694798,0.0009152860857038758,0.14295786135408334,9.752045216067957,-0.3164764937883547
1560116811815094784,0.003383122624902535,-0.0064090067078090285,-0.00014222933624614964,0.13084767115683818,9.76419794408835,-0.3287619812967983
1560116811825117440,0.0023224281909827726,-0.001092975481303618,0.0019728016232188617,0.12864987776019277,9.766403457375873,-0.3410480677418286
1560116811835140352,-0.0008596547630394663,-0.003219387971905782,-0.003314775602096226,0.13128531002277283,9.766403457375873,-0.34798730925934657
1560116811845162752,0.0012617339888877088,-0.001092975481303618,-0.00014222933624614964,0.143395680160735,9.766403457375873,-0.33570162963216094
1560116811855185152,0.0012617339888877088,-0.007472213069296962,-0.001199744758196175,0.14057052999392503,9.766403457375873,-0.3234155056275933
1560116811865207552,0.00020103955496794668,-0.007472213069296962,0.0030303169296039267,0.12864987776019277,9.766212061613071,-0.3113222996808087
1560116811875230208,-0.0008596547630394663,-0.001092975481303618,-0.0022572601801462006,0.12864987776019277,9.754058141557694,-0.3113222996808087
1560116811885252864,-0.0019203490810468793,-0.003219387971905782,0.0019728016232188617,0.12864987776019277,9.751989216967651,-0.3164198829396513
1560116811895275520,-0.0008596547630394663,-0.003219387971905782,-0.00014222933624614964,0.12864987776019277,9.764143137023026,-0.32870657550517074
1560116811905297920,0.0023224281909827726,0.0020966432545996283,0.0009152860857038758,0.10893397801837316,9.756510881784612,-0.32099094357171054
1560116811915320576,0.0012617339888877088,-0.001092975481303618,0.0009152860857038758,0.09245251323327006,9.746946719234984,-0.31917406340783927
1560116811925343232,-0.0008596547630394663,0.0020966432545996283,-0.003314775602096226,0.10456353136562428,9.746946719234984,-0.356033074413636
1560116811935365888,0.0023224281909827726,-0.004282594217206864,-0.00014222933624614964,0.10926123966921075,9.754386179335453,-0.36280946876104275
1560116811945388288,0.0012617339888877088,-0.008535419430784896,0.0009152860857038758,0.10939692729425685,9.766403457375873,-0.3506608919895484
1560116811955410944,0.0012617339888877088,-0.0021561817266047,-0.00014222933624614964,0.12150740793478317,9.766403457375873,-0.3506608919895484
1560116811965433600,0.0012617339888877088,-0.004282594217206864,-0.001199744758196175,0.12368149783420818,9.766403457375873,-0.35570119703509445
1560116811975456000,0.003383122624902535,-0.0021561817266047,0.0030303169296039267,0.11157040552057443,9.766403457375873,-0.36798761647259054
1560116811985478912,0.00020103955496794668,-0.0021561817266047,0.005145348004633898,0.10926123966921075,9.766403457375873,-0.3603862450929448
1560116811995501568,0.0012617339888877088,-0.001092975481303618,-0.00014222933624614964,0.10926123966921075,9.763870360696917,-0.3481001211235637
1560116812005523968,-0.0029810433990542923,-0.001092975481303618,0.0030303169296039267,0.10926123966921075,9.751717452103751,-0.335814441496378
1560116812015546368,-0.0029810433990542923,-0.005345800578694798,-0.001199744758196175,0.11661779583874114,9.746946719234984,-0.3309915881717398
1560116812025569280,0.0023224281909827726,-0.0021561817266047,0.004087832467118913,0.12864987776019277,9.746946719234984,-0.33091120992172113
1560116812035591936,0.00020103955496794668,-0.007472213069296962,-0.00014222933624614964,0.12864987776019277,9.746946719234984,-0.31862415219704976
1560116812045614336,-0.0008596547630394663,-0.005345800578694798,0.004087832467118913,0.13356351667759184,9.746946719234984,-0.3163070644580325
1560116812055636992,0.00020103955496794668,-0.0021561817266047,-0.00014222933624614964,0.1456748947373762,9.746946719234984,-0.3285937570235519
1560116812065659648,0.0012617339888877088,-0.0064090067078090285,0.0009152860857038758,0.13829075135110014,9.756728719595458,-0.3309915881717398
1560116812075682048,0.0023224281909827726,-0.0021561817266047,-0.00014222933624614964,0.12864987776019277,9.763924201419886,-0.3284852481938851
1560116812085704448,0.00020103955496794668,-0.003219387971905782,0.0009152860857038758,0.12864987776019277,9.751770209277401,-0.3161984827537592
1560116812095726848,0.0023224281909827726,0.001033437125485398,0.0009152860857038758,0.12134492441875433,9.754277330267529,-0.3113222996808087
1560116812105749760,0.0012617339888877088,-0.003219387971905782,0.005145348004633898,0.10928976296471572,9.76637483389603,-0.3113512358508154
1560116812115772416,0.0023224281909827726,0.0020966432545996283,0.0019728016232188617,0.12140150333277727,9.754220552627487,-0.3236382935754868
1560116812125795072,0.003383122624902535,0.0020966432545996283,0.0019728016232188617,0.12378672861793331,9.751826949551162,-0.3309915881717398
1560116812135817216,0.00020103955496794668,0.0020966432545996283,-0.00014222933624614964,0.11167610436769528,9.763980110781667,-0.3309915881717398
1560116812145840128,0.0023224281909827726,-0.003219387971905782,0.0030303169296039267,0.11895800761173689,9.766403457375873,-0.32115445958147176
1560116812155862784,0.0012617339888877088,-0.004282594217206864,0.0009152860857038758,0.12864987776019277,9.76397541281294,-0.3137768688193435
1560116812165885184,0.003383122624902535,0.0020966432545996283,0.0009152860857038758,0.12864987776019277,9.751821601275426,-0.3260634516815236
1560116812175908096,0.0023224281909827726,-0.001092975481303618,-0.00014222933624614964,0.12132400090902005,9.746946719234984,-0.3309915881717398
1560116812185930752,-0.0029810433990542923,-0.004282594217206864,-0.0022572601801462006,0.10942835081142123,9.747114417333178,-0.3309915881717398
1560116812195796224,0.00020103955496794668,-0.0064090067078090285,-0.0022572601801462006,0.12135057831750276,9.759078520100655,-0.3309915881717398
1560116812205818880,0.0012617339888877088,-0.005345800578694798,0.0009152860857038758,0.12383736292785606,9.761574039215994,-0.3261094122210657
1560116812215841536,0.0023224281909827726,-0.004282594217206864,-0.00014222933624614964,0.11172598250868876,9.749420119160616,-0.3138227196555463
1560116812225863936,0.0012617339888877088,-0.007472213069296962,-0.001199744758196175,0.10926123966921075,9.746946719234984,-0.32110915256237316
1560116812235886592,0.0012617339888877088,-0.004282594217206864,-0.001199744758196175,0.11163220102998662,9.749326008286763,-0.3309915881717398
1560116812245908992,-0.0008596547630394663,-2.9769236002535893e-05,-0.00014222933624614964,0.12374401324567935,9.761480361655293,-0.3309915881717398
1560116812255931648,-0.0008596547630394663,0.001033437125485398,-0.00014222933624614964,0.12144396318438512,9.766403457375873,-0.3309915881717398
1560116812265954304,-0.0008596547630394663,0.001033437125485398,0.004087832467118913,0.10933240279344507,9.766403457375873,-0.3309915881717398
1560116812275976960,-0.0008596547630394663,0.0020966432545996283,-0.001199744758196175,0.12130181585555787,9.754320590243903,-0.31877672472981244
1560116812285999360,0.0012617339888877088,-0.001092975481303618,0.0019728016232188617,0.1334132671815811,9.746946719234984,-0.31615464007193084
1560116812296022016,0.0012617339888877088,-0.001092975481303618,0.0009152860857038758,0.1455250051901896,9.746946719234984,-0.3284416977966022
1560116812306044672,0.0012617339888877088,-0.003219387971905782,-0.001199744758196175,0.13844042357652994,9.746946719234984,-0.3212545655138273
1560116812316067584,0.004443817058822297,-2.9769236002535893e-05,-0.001199744758196175,0.12632864596877189,9.746946719234984,-0.31603196472630063
1560116812326089984,-0.0029810433990542923,-0.0064090067078090285,-0.00014222933624614964,0.11421744551602883,9.746946719234984,-0.3406049942884689
1560116812336112384,0.003383122624902535,0.0020966432545996283,-0.003314775602096226,0.11641587069799933,9.746946719234984,-0.34340269207116336
1560116812346134784,-0.0019203490810468793,-0.004282594217206864,0.0009152860857038758,0.12852714297912468,9.746946719234984,-0.33111609963492317
1560116812356157440,0.0012617339888877088,0.003159849616087562,0.0019728016232188617,0.12864987776019277,9.746946719234984,-0.3309915881717398
1560116812366180096,0.0012617339888877088,-0.001092975481303618,-0.003314775602096226,0.12864987776019277,9.746946719234984,-0.33577182645617837
1560116812376202496,0.00020103955496794668,-0.001092975481303618,0.0019728016232188617,0.12864987776019277,9.746946719234984,-0.3480591492373295
1560116812386225152,0.0012617339888877088,-0.004282594217206864,0.0019728016232188617,0.11910292469511005,9.746946719234984,-0.3312905941555483
1560116812396247808,-0.0008596547630394663,-0.004282594217206864,-0.001199744758196175,0.111531204906928,9.74922465742806,-0.3113222996808087
1560116812406270464,0.00020103955496794668,-0.004282594217206864,-0.00014222933624614964,0.12364402525005544,9.761380022464941,-0.3113222996808087
1560116812416293120,-0.0008596547630394663,0.0020966432545996283,-0.001199744758196175,0.12864987776019277,9.759271739222703,-0.3113222996808087
1560116812426315520,-0.0008596547630394663,-0.0064090067078090285,-0.00014222933624614964,0.12864987776019277,9.747117024606654,-0.3113222996808087
1560116812436338432,0.0012617339888877088,-0.004282594217206864,-0.00014222933624614964,0.116707548480585,9.758930994380831,-0.32343749409271294
1560116812446360832,0.0012617339888877088,-2.9769236002535893e-05,0.004087832467118913,0.10926123966921075,9.761722136920921,-0.32625912778294436
1560116812456383232,0.0012617339888877088,-0.004282594217206864,-0.00014222933624614964,0.10926123966921075,9.749568686577248,-0.313972910060378
1560116812466406144,0.0012617339888877088,-0.005345800578694798,0.0009152860857038758,0.10926123966921075,9.746946719234984,-0.3209583483820672
1560116812476428288,0.00020103955496794668,-0.0021561817266047,0.0009152860857038758,0.10926123966921075,9.749175311822622,-0.3309915881717398
1560116812486451200,0.00020103955496794668,0.001033437125485398,-0.00014222933624614964,0.10926123966921075,9.761331507980884,-0.3309915881717398
1560116812496473856,0.00020103955496794668,-0.004282594217206864,-0.001199744758196175,0.11631966856899048,9.766403457375873,-0.3309915881717398
1560116812506496512,-0.0008596547630394663,-0.0021561817266047,0.0009152860857038758,0.1284317689073422,9.766403457375873,-0.3309915881717398
1560116812516518656,0.003383122624902535,-0.003219387971905782,-0.00014222933624614964,0.11675663925813246,9.766403457375873,-0.31892619512604264
1560116812526541312,-0.0008596547630394663,-0.005345800578694798,-0.00014222933624614964,0.10926123966921075,9.766403457375873,-0.31600571414427725
1560116812536563968,-0.0008596547630394663,-0.0064090067078090285,-0.00014222933624614964,0.10926123966921075,9.766403457375873,-0.3282931370498062
1560116812546586624,-0.0008596547630394663,0.0020966432545996283,0.0009152860857038758,0.11871282980269005,9.756918669770927,-0.34057999747745965
1560116812556609280,-0.0008596547630394663,-0.0064090067078090285,-0.00014222933624614964,0.12864987776019277,9.749128945445086,-0.3484548248669472
1560116812566631680,0.0023224281909827726,-0.005345800578694798,-0.0022572601801462006,0.12864987776019277,9.76128239578876,-0.3361685975706052
1560116812576654336,0.0012617339888877088,-0.0064090067078090285,-0.0022572601801462006,0.13565804349843563,9.75937067500404,-0.3309915881717398
1560116812586676992,0.0023224281909827726,-0.001092975481303618,0.0009152860857038758,0.14776942155821998,9.747216754948665,-0.3309915881717398
1560116812596699392,0.003383122624902535,-0.003219387971905782,-0.00014222933624614964,0.13619598471350716,9.758830844235801,-0.31897763797049244
1560116812606722048,0.00020103955496794668,0.001033437125485398,0.005145348004633898,0.13321521390635654,9.761822085192419,-0.3113222996808087
1560116812616744448,-0.0008596547630394663,-0.001092975481303618,-0.00014222933624614964,0.14532558404431872,9.749669176599253,-0.3113222996808087
1560116812626767360,0.00020103955496794668,0.001033437125485398,0.0019728016232188617,0.1574372286187878,9.746946719234984,-0.3113222996808087
1560116812636789760,0.0012617339888877088,-2.9769236002535893e-05,-0.00014222933624614964,0.16530576271240816,9.746946719234984,-0.3091702068951556
1560116812646812672,0.00020103955496794668,0.001033437125485398,-0.003314775602096226,0.1531937365897598,9.746946719234984,-0.2968828473112808
1560116812656835072,0.0023224281909827726,0.0020966432545996283,0.004087832467118913,0.16195055478811848,9.746946719234984,-0.27048286533671734
1560116812666857728,-0.0008596547630394663,-2.9769236002535893e-05,-0.00014222933624614964,0.186173320345219,9.746946719234984,-0.23362277806601342
1560116812676880128,0.003383122624902535,0.001033437125485398,-0.001199744758196175,0.1986068700302238,9.746946719234984,-0.1608745327214709
1560116812686902784,0.0012617339888877088,0.008475880958779825,0.0030303169296039267,0.20167986105270733,9.742406489568928,-0.05036848546984597
1560116812696893440,0.008686594330851949,-0.001092975481303618,-0.00014222933624614964,0.18958048480369843,9.730265214270501,0.12147490234540667
1560116812706916096,0.003383122624902535,-0.005345800578694798,-0.00014222933624614964,0.07459090190340764,9.718106028370718,0.21766554671516108
1560116812716938496,0.005504511492742059,0.006349468235803957,-0.001199744758196175,-0.05621599278619751,9.712195935325415,0.2913784941906782
1560116812726961152,0.006565205463012425,0.010602293681755692,0.0009152860857038758,-0.11676838891120606,9.736501363483116,0.3650932110599492
1560116812736983552,0.012929372066530997,-2.9769236002535893e-05,0.0019728016232188617,-0.05991074398039496,9.7608086187171,0.32670573405098907
1560116812747006208,0.011868676705312442,-0.0021561817266047,0.0030303169296039267,0.08543660348094753,9.785118264974209,0.2038296407105813
1560116812757028864,0.009747288764771711,-0.003219387971905782,-0.00014222933624614964,0.14858218284858424,9.821209667830061,0.10478437808679825
1560116812767051520,0.010807983198691473,-0.0064090067078090285,0.005145348004633898,0.18681579581018326,9.844230409939428,0.0472548799309275
1560116812777074432,0.005504511492742059,-0.005345800578694798,0.0030303169296039267,0.18681579581018326,9.844230409939428,0.059542960340941496
1560116812787096832,0.003383122624902535,-0.007472213069296962,0.004087832467118913,0.23332097042830025,9.834896238329126,0.1001370599228684
1560116812797119488,0.0023224281909827726,-0.008535419430784896,0.0019728016232188617,0.26554008471328966,9.818678513159979,0.15955415699050024
1560116812807142144,-0.0029810433990542923,-0.007472213069296962,-0.0022572601801462006,0.15653281571543026,9.782215733657551,0.27013938682398897
1560116812817164544,-0.005102432150981467,-0.01172503805050129,0.0009152860857038758,0.05439552579402379,9.752639193296877,0.3598401908421176
1560116812827186944,0.0012617339888877088,-0.015977862566958212,-0.001199744758196175,-0.042485428542310466,9.728334487397234,0.4335526980647659
1560116812837209600,-0.0008596547630394663,-0.014914657134965092,-0.004372291139611212,-0.04584784617342308,9.727490951408186,0.4479707858563658
1560116812847232256,-0.006163126353076531,-0.022357100735885815,-0.00014222933624614964,-0.03260970065763207,9.731918945402288,0.4513037615636678
1560116812857254656,0.00020103955496794668,-0.019167481651422014,-0.0022572601801462006,0.0037219519536695195,9.744071428494934,0.43901787066504855
1560116812867277312,0.0023224281909827726,-0.02342030709737375,0.0019728016232188617,0.03081202279808573,9.774785564522801,0.3892068407391541
1560116812877299968,0.00020103955496794668,-0.027673132543325485,0.0030303169296039267,0.05109533295035362,9.80531790397174,0.32776649756123155
1560116812887322368,0.0012617339888877088,-0.027673132543325485,0.0030303169296039267,0.05109533295035362,9.80531790397174,0.26632989323010525
1560116812897345280,0.00020103955496794668,-0.02873633890481342,0.004087832467118913,0.08512678374158714,9.80531790397174,0.21179877999147279
1560116812907367680,-0.0019203490810468793,-0.027673132543325485,0.004087832467118913,0.14568043863729435,9.80531790397174,0.16265462020061436
1560116812917390336,-0.004041737717061705,-0.032989162491775526,-0.00014222933624614964,0.14803851207413032,9.80531790397174,0.1607408540047004
1560116812927412992,-0.0019203490810468793,-0.029799543407311724,0.0030303169296039267,0.15239914698662171,9.80531790397174,0.1695883727668321
1560116812937435648,-0.008284515220916056,-0.03405236885326346,0.0009152860857038758,0.16451016511897595,9.80531790397174,0.19416104677069662
1560116812947458048,-0.009345209654835818,-0.03192595798927722,0.0019728016232188617,0.16742714638806788,9.768412089209969,0.274697457227366
1560116812957480704,-0.010405903625106183,-0.038305194299215195,0.0019728016232188617,0.15975847481699487,9.721719245483818,0.37104827414932945
1560116812967503360,-0.006163126353076531,-0.0393683988017135,-0.00014222933624614964,0.11131008054215763,9.68525531797427,0.4570602919363206
1560116812977526016,-0.005102432150981467,-0.03405236885326346,0.0030303169296039267,0.09662533479839142,9.64879172840851,0.4951189422730593
1560116812987548416,-0.0019203490810468793,-0.03724198979671689,0.004087832467118913,0.10873714465461708,9.612329274444617,0.4951189422730593
1560116812997571072,0.0023224281909827726,-0.03617878157623933,0.005145348004633898,0.1903700353427369,9.657261592285423,0.43634542011561395
1560116813007593728,0.004443817058822297,-0.03405236885326346,-0.005429806445996277,0.22774273794473696,9.701551887819795,0.344306921364862
1560116813017616384,0.009747288764771711,-0.03192595798927722,-0.00014222933624614964,0.17929318881985284,9.738016076562761,0.1968542815300701
1560116813027638528,0.010807983198691473,-0.026609924322847922,-0.00014222933624614964,0.15828310251618366,9.783650913276645,0.03087111256354691
1560116813037661440,0.01611145444099149,-0.026609924322847922,0.006202863542148884,0.15177241600021246,9.828519812961225,-0.12978112920433874
1560116813047683840,0.008686594330851949,-0.025546719820349617,0.005145348004633898,0.1759955415009286,9.852828620408877,-0.22807617223090687
1560116813057706496,0.004443817058822297,-0.02342030709737375,0.0030303169296039267,0.19351712660403855,9.877136892620403,-0.2651853555621527
1560116813067729152,0.00020103955496794668,-0.022357100735885815,0.0009152860857038758,0.205628499945057,9.901444732731155,-0.2528986629966333
1560116813077751552,-0.005102432150981467,-0.029799543407311724,-0.0022572601801462006,0.16005757818327143,9.844715034673161,-0.15868470956592956
1560116813087774208,-0.008284515220916056,-0.024483513458861683,0.0030303169296039267,0.11586741540975101,9.783938970099403,-0.05173503322944953
1560116813097797120,-0.009345209654835818,-0.025546719820349617,-0.0022572601801462006,0.07952971357378805,9.723163408761888,0.07114400223779987
1560116813107819520,-0.008284515220916056,-0.02873633890481342,0.0009152860857038758,0.10687202130189674,9.689776280837986,0.1663338401675033
1560116813117842176,-0.007223820786996293,-0.027673132543325485,0.0009152860857038758,0.14803851207413032,9.6654661292924,0.24680710749182944
1560116813127864832,-0.004041737717061705,-0.026609924322847922,-0.001199744758196175,0.14803851207413032,9.64115720552604,0.2959561070396666
1560116813137887232,-0.005102432150981467,-0.032989162491775526,-0.001199744758196175,0.10145191250853727,9.63688586557436,0.30459210555578
1560116813147909888,0.005504511492742059,-0.030862751627789287,-0.003314775602096226,0.01667603819407465,9.64903924385024,0.280019777525934
1560116813157932544,0.005504511492742059,-0.0393683988017135,-0.0022572601801462006,0.08126305385854891,9.68425757899671,0.16218493948784868
1560116813167954944,0.013990065573151966,-0.04149481152468937,-0.00014222933624614964,0.0991492019197527,9.73340890263951,0.03075900086326181
1560116813177977344,0.01611145444099149,-0.04149481152468937,-0.001199744758196175,0.014377863461581986,9.806324058640586,-0.11666691385720576
1560116813188000256,0.010807983198691473,-0.05212687513956871,-0.004372291139611212,-0.052253078037470924,9.833841394805885,-0.24564100447782233
1560116813198043136,0.007625899896932187,-0.0500004661345721,-0.0022572601801462006,-0.09338485726174933,9.85311884883672,-0.3578493972582887
1560116813208065792,0.003383122624902535,-0.05319008336004627,0.0009152860857038758,-0.020707942281975117,9.913895067828973,-0.40700202973833144
1560116813218088448,-0.0008596547630394663,-0.05531649608302214,-0.001199744758196175,0.005709477618461071,9.941513130329781,-0.382408351739826
1560116813228110848,-0.0029810433990542923,-0.05319008336004627,0.0030303169296039267,-0.006403232235524678,9.941513130329781,-0.2963920079751623
1560116813238133504,-0.012527292492945707,-0.06169573425194974,0.004087832467118913,-0.018517423283968312,9.769208449946714,-0.11746477569862182
1560116813248156160,-0.007223820786996293,-0.06701176420039978,0.0009152860857038758,0.0027459187424821,9.662224447297886,0.045712032472720626
1560116813258178560,-0.014648681360785232,-0.07445420687182569,0.0019728016232188617,0.08753741505541206,9.698691300784283,0.16859618835959692
1560116813268201216,-0.007223820786996293,-0.07339100608730664,0.0019728016232188617,0.08223257865054165,9.635705066367603,0.23663933398405484
1560116813278223872,-0.0008596547630394663,-0.0765806158768223,-0.001199744758196175,0.049361591305979134,9.55586085439653,0.2752389401764514
1560116813288246272,0.0023224281909827726,-0.08508627420468429,0.0030303169296039267,0.03725104004234166,9.580166426660476,0.2506672349671417
1560116813298268928,0.008686594330851949,-0.08614948242516185,-0.0022572601801462006,-0.007693453702363691,9.6769602901936,0.1528153190235187
1560116813308291584,0.012929372066530997,-0.09146550865563263,-0.0022572601801462006,-0.08036065523914805,9.834958297021487,-0.006909382704578387
1560116813318313984,0.017172148874911253,-0.0893390922146775,0.0030303169296039267,-0.004821594552791228,9.798468217343435,-0.2822900742379278
1560116813328336640,0.012929372066530997,-0.08614948242516185,0.0009152860857038758,0.0016193537541642558,9.832602935753108,-0.5105034779860903
1560116813338359296,0.009747288764771711,-0.09359191766062924,0.007260378617404029,-0.1437042357825468,10.027047714401954,-0.6333595459017908
1560116813348381696,0.0023224281909827726,-0.09890794389110003,0.006202863542148884,-0.21738911898459048,10.02379033579758,-0.7017090513338502
1560116813358404352,-0.0029810433990542923,-0.09040230043515507,0.006202863542148884,-0.23563416412029156,9.954235328040328,-0.7304305034903059
1560116813368427264,-0.014648681360785232,-0.0946551258811068,0.009375409692434,-0.06605822221913099,9.90561548514986,-0.6321272253260655
1560116813378449664,-0.023134235904844536,-0.09571833410158437,0.009375409692434,0.03837589888019467,9.863531535984242,-0.4743435307656144
1560116813388472320,-0.028437708074443346,-0.0946551258811068,0.011490440767463972,0.0868307760384495,9.827062124772604,-0.2654293142848547
1560116813398494976,-0.026316317352006235,-0.09997115211157759,0.007260378617404029,0.16934307130889736,9.631096784443692,-0.033486372549393684
1560116813408517376,-0.02525562477268406,-0.09997115211157759,0.007260378617404029,0.23782294670449805,9.514465616819562,0.18343691999305684
1560116813418540032,-0.02101284703700501,-0.10847681043943957,0.006202863542148884,0.27415654570337933,9.575233707992696,0.36773465607032385
1560116813428562688,-0.011466598059025945,-0.1127296284494328,0.005145348004633898,0.2659365832561614,9.501869336310154,0.4164417270018248
1560116813438585344,0.00020103955496794668,-0.10847681043943957,0.0019728016232188617,0.2286340993010853,9.411491884656428,0.3965406491125502
1560116813448607744,0.010807983198691473,-0.1180456621158621,0.0009152860857038758,0.10751959091781163,9.520877813938794,0.2490994063858254
1560116813458630144,0.019293537742750777,-0.11910887033633966,0.0009152860857038758,-0.007122429956517476,9.610785862215486,0.05572688470531466
1560116813468653056,0.025657702491671763,-0.12336169578229139,-0.00014222933624614964,-0.11612419073868263,9.683708343934308,-0.17771901396748357
1560116813478675712,0.02883978579343105,-0.12655131300776556,0.004087832467118913,-0.12340238342917331,9.81334295007574,-0.4340983823893833
1560116813488698112,0.025657702491671763,-0.125488104787288,-0.001199744758196175,-0.07911946297934641,9.918759864601773,-0.6635376908884016
1560116813498720768,0.023536315478429826,-0.1329305400227554,0.005145348004633898,0.05412550229656962,9.96738216373538,-0.8355770275899171
1560116813508743168,0.008686594330851949,-0.1329305400227554,0.0019728016232188617,0.036699211505765605,9.944853607711043,-0.8367793568033943
1560116813518765824,0.006565205463012425,-0.1382465811251432,0.004087832467118913,-0.02328760506962792,9.8978265039326,-0.7672978910380509
1560116813528788480,0.00020103955496794668,-0.13186734667419486,0.0019728016232188617,0.0009362332719479831,9.861363118283062,-0.644425392168458
1560116813538810624,-0.008284515220916056,-0.14249941400705346,-0.00014222933624614964,0.04442402320622887,9.773349515584465,-0.46292373234854495
1560116813548833792,-0.0029810433990542923,-0.14356262222753102,0.0019728016232188617,0.10499369966735855,9.639628783279553,-0.22942720052013493
1560116813558856192,-0.0029810433990542923,-0.14249941400705346,0.0009152860857038758,0.10926123966921075,9.618908880216692,-0.07590722323696675
1560116813568879104,0.0012617339888877088,-0.14568903866848615,0.0019728016232188617,0.09731051316616998,9.590763653842048,0.027097008574011906
1560116813578901504,0.007625899896932187,-0.15313146646799503,-0.00014222933624614964,0.06097778083028189,9.52999640212368,0.03938324065724168
1560116813588924160,0.011868676705312442,-0.15313146646799503,-0.00014222933624614964,-0.0194274430999299,9.593084156573436,-0.07353333167693575
1560116813598946560,0.017172148874911253,-0.15313146646799503,-0.00014222933624614964,-0.0901931302036804,9.696282493250525,-0.24413288831648616
1560116813608969216,0.022475619189912477,-0.15632109112942771,0.0030303169296039267,0.018810902697399004,9.757052390417812,-0.4898705108427313
1560116813618991872,0.0214149266105903,-0.1488786484580018,0.004087832467118913,0.08959457527970482,9.86896337985722,-0.6903731521917612
1560116813629014784,0.018232843308831015,-0.1510050500270399,0.004087832467118913,0.12593065718691368,10.026972188834538,-0.8501087789088444
1560116813639036928,0.011868676705312442,-0.14781544023752424,0.006202863542148884,0.00540854333316465,9.937609391706614,-0.8279648047794467
1560116813649059584,0.0012617339888877088,-0.14781544023752424,-0.001199744758196175,0.06850761101965538,9.847926059602504,-0.7552548927436092
1560116813659081984,-0.0008596547630394663,-0.15632109112942771,0.0030303169296039267,0.5408963268366288,9.799305756062338,-0.6078005030321416
1560116813669104896,-0.007223820786996293,-0.13399374824323296,0.006202863542148884,0.4173869179207999,9.750683055103385,-0.3447613822715855
1560116813679127296,-0.010405903625106183,-0.13930978934562077,0.0030303169296039267,0.10478907132637953,9.699058459605721,-0.06319230633365754
1560116813689149952,-0.009345209654835818,-0.14781544023752424,-0.001199744758196175,0.06837593694792923,9.625976388634328,0.03531498641724608
1560116813699136512,0.0012617339888877088,-0.1382465811251432,-0.0022572601801462006,0.11430361116222135,9.610322873347362,0.024352726496685247
1560116813709159168,0.003383122624902535,-0.14356262222753102,-0.0022572601801462006,0.2354300003435358,9.646788426533572,-0.08623905783668134
1560116813719181824,0.010807983198691473,-0.1308041384537173,0.0009152860857038758,0.02188534167721018,9.73921598779416,-0.26470437772034805
1560116813729204480,0.011868676705312442,-0.12655131300776556,-0.0022572601801462006,-0.03423403066236838,9.840333398703542,-0.4765289774340208
1560116813739226880,0.010807983198691473,-0.1382465811251432,0.0019728016232188617,0.3049269045635259,9.949731120891633,-0.7468700891880781
1560116813749249536,0.004443817058822297,-0.12655131300776556,0.0019728016232188617,0.17355832781490532,9.945453483562963,-0.7962073191056985
1560116813759271936,-0.0029810433990542923,-0.1308041384537173,0.005145348004633898,-0.09253460988437574,9.902600624362094,-0.7447925011225548
1560116813769295104,-0.008284515220916056,-0.1308041384537173,0.0030303169296039267,0.004369673416679015,9.902600624362094,-0.5850435984146853
1560116813779317248,-0.0157093748674062,-0.11485604489038792,-0.00014222933624614964,0.0949948688944781,9.839667040307074,-0.4062209912709383
1560116813789339904,-0.016770070228624756,-0.125488104787288,0.005145348004633898,0.17978460893670667,9.718113996130416,-0.2096104326249154
1560116813799362560,-0.0157093748674062,-0.12229848756181383,-0.00014222933624614964,0.031310832524549276,9.652302212565779,0.07713229402026722
1560116813809384960,-0.009345209654835818,-0.11591925311086548,0.0019728016232188617,-0.027169740403107087,9.583844800581948,0.29041403964579066
1560116813819407616,-0.005102432150981467,-0.1276145137922846,0.005145348004633898,0.1545144527719145,9.498761038682067,0.3272768944575126
1560116813829430016,0.004443817058822297,-0.12123528677729478,-0.00014222933624614964,0.03291031550005882,9.570200432389218,0.21470268971930212
1560116813839452672,0.009747288764771711,-0.125488104787288,-0.00014222933624614964,-0.16076820855314644,9.701101293123424,0.028632478403929185
1560116813849475328,0.01611145444099149,-0.1276145137922846,0.005145348004633898,0.020905173716774195,9.810487592927815,-0.26625266862756497
1560116813859497984,0.011868676705312442,-0.13399374824323296,0.004087832467118913,0.0781540804279864,9.857443863538444,-0.4475377343975988
1560116813869520128,0.009747288764771711,-0.1329305400227554,0.008317894154919014,0.0175964670410505,9.845289799304565,-0.52125880260902
1560116813879543040,0.004443817058822297,-0.1382465811251432,0.0030303169296039267,-0.00979436558002346,9.899705094838676,-0.4491707760784174
1560116813889565696,0.003383122624902535,-0.1414362057865759,0.004087832467118913,-0.022679963102695745,9.911173136482747,-0.3516599451529393
1560116813899588352,-0.006163126353076531,-0.15525788290895015,-0.00014222933624614964,-0.010568042752163723,9.813938047564422,-0.2287874750070637
1560116813909611008,-0.009345209654835818,-0.15951070091894337,0.0030303169296039267,-0.09322404083009715,9.768568979868139,-0.1496062137940729
1560116813919633408,-0.010405903625106183,-0.15525788290895015,0.0009152860857038758,-0.19559844942238677,9.744258132601155,-0.0868059396511447
1560116813929656320,-0.010405903625106183,-0.16907957490324144,-0.0022572601801462006,-0.14714385520030238,9.719946346518231,-0.013071944936573654
1560116813939678720,-0.005102432150981467,-0.17545879448227275,-0.001199744758196175,-0.19752712366056083,9.739028002294575,0.01052281149343303
1560116813949701376,-0.006163126353076531,-0.18290123715369866,0.004087832467118913,-0.34287232772078136,9.799801214810488,-0.014052043892339633
1560116813959724032,-0.0029810433990542923,-0.19140690291751916,0.007260378617404029,-0.44416179814623225,9.727963369348394,-0.1838534277164941
1560116813969746176,-0.0008596547630394663,-0.18928048647656404,0.011490440767463972,-0.4887673292413688,9.699102384706816,-0.326477084909658
1560116813979769088,-0.006163126353076531,-0.19565970605559535,0.012547955380459275,-0.41608758407224816,9.796347850994572,-0.37563162670701894
1560116813989791744,-0.005102432150981467,-0.20097574715798316,0.016778017530519218,-0.3434088167343973,9.730146236400952,-0.26824844918102736
1560116813999814400,-0.006163126353076531,-0.20522858003989342,0.017835533068034204,-0.24089140544587329,9.628976566885829,-0.105417162528571
1560116814009836800,-0.008284515220916056,-0.23074553271560383,0.014662986455489246,0.11038242436896434,9.799151474951469,-0.01939953921688095
1560116814019859200,-0.0029810433990542923,-0.2360615589460746,0.011490440767463972,0.24696355999700506,9.8154490131162,-0.10759236225454474
1560116814029881856,-0.0019203490810468793,-0.252009652509404,0.009375409692434,0.17430608345972615,9.681776361719322,-0.36557470048710944
1560116814039904768,-0.004041737717061705,-0.2530728458579645,0.006202863542148884,0.046837154530900635,9.768131285676711,-0.4233637395269505
1560116814049927424,-0.007223820786996293,-0.2743369805236817,0.004087832467118913,-0.05689784812873922,9.840533954152173,-0.44153406417542695
1560116814059949312,-0.009345209654835818,-0.2828426462875022,0.004087832467118913,-0.09322561538915797,9.828381559422215,-0.41696498828940864
1560116814069972480,-0.010405903625106183,-0.29028508895892813,0.0009152860857038758,-0.25727743271549974,9.756417104273364,-0.31465185107956717
1560116814079995136,-0.012527292492945707,-0.2966643382817935,0.0030303169296039267,-0.44930009155060113,9.671602164319413,-0.18578089865543676
1560116814090017536,-0.009345209654835818,-0.3158020267627215,0.0019728016232188617,-0.4129635773136866,9.69591159355151,-0.1120558891098446
1560116814100040192,-0.010405903625106183,-0.33387655163892305,0.005145348004633898,-0.43734480332275044,9.689755304680874,-0.019854919042266043
1560116814110062848,-0.0029810433990542923,-0.34344538100747,0.0019728016232188617,-0.5221219538423585,9.653294628089839,0.09072207926987777
1560116814120085248,0.0012617339888877088,-0.3551406565608062,0.004087832467118913,-0.3015536418505216,9.682494642361517,-0.01996117652485009
1560116814130107904,0.007625899896932187,-0.36683593211414234,0.005145348004633898,-0.13065796392466555,9.722596158417847,-0.17719447402309513
1560116814140130560,0.006565205463012425,-0.3838472338979493,0.004087832467118913,-0.1548785700446928,9.771206898530517,-0.3860497164834337
1560116814150153472,0.007625899896932187,-0.40085850593792216,-0.0022572601801462006,-0.17910226012132582,9.87076994533652,-0.5863478377006798
1560116814160175872,0.0023224281909827726,-0.40936417170174266,-0.003314775602096226,-0.1796373880312405,9.979238027045207,-0.7721270853470878
1560116814170198272,-0.0029810433990542923,-0.4210594472550788,-0.001199744758196175,0.03836548943539675,9.967084215507693,-0.8581332036785888
1560116814180220928,-0.011466598059025945,-0.4253122801369891,-0.003314775602096226,0.020838644032528136,9.918420983827161,-0.8338082395058738
1560116814190243584,-0.014648681360785232,-0.4274386965779442,-0.004372291139611212,-0.23513206217775773,9.832797718501942,-0.6977874878362489
1560116814200162304,-0.022073541470924773,-0.4380707192950517,-0.003314775602096226,-0.3893377491208206,9.74854830427332,-0.464872603405758
1560116814210184960,-0.023134235904844536,-0.4338179161569755,-0.001199744758196175,-0.4524640607522543,9.659879059246812,-0.21549618213558666
1560116814220207104,-0.024194930338764298,-0.4455131917103117,-0.00014222933624614964,-0.3192253993448413,9.562638481307536,0.042550555075887675
1560116814230229760,-0.01995215260308525,-0.451892411289343,0.0030303169296039267,-0.35421195118655635,9.499161708723358,0.18966561232141382
1560116814240252416,-0.009345209654835818,-0.4497660245922219,0.0009152860857038758,-0.4359905597706223,9.456236149251241,0.26839761708816356
1560116814250275072,0.0023224281909827726,-0.4603980770531635,0.006202863542148884,-0.25431717514128366,9.468390249910518,0.15781570250957105
1560116814260297472,0.01611145444099149,-0.4540188277302981,0.008317894154919014,-0.15024247754354642,9.540439160250074,-0.055696831592008306
1560116814270320128,0.022475619189912477,-0.4625244934941186,0.008317894154919014,-0.12602007191936454,9.674129688164273,-0.3751462446222058
1560116814280342784,0.02035423217667054,-0.4657141032836343,0.005145348004633898,-0.10179768313018894,9.87286146541172,-0.7932241933562101
1560116814290365440,0.018232843308831015,-0.4614613001455581,0.005145348004633898,-0.05642158950067933,10.029953558898885,-1.1410119260394092
1560116814300388096,0.006565205463012425,-0.4710301592579391,0.005145348004633898,0.04048240982134724,10.066420195950068,-1.2884720340745914
1560116814310410752,-0.0008596547630394663,-0.4657141032836343,0.007260378617404029,-0.013126675567804114,10.027367700270178,-1.2238585308926
1560116814320433152,-0.01358798692686547,-0.4710301592579391,0.007260378617404029,-0.12231973172986409,9.944673151737813,-1.0509667677866361
1560116814330455808,-0.016770070228624756,-0.4742197690474548,0.0030303169296039267,-0.11020889827175832,9.762373689785766,-0.7438130120674398
1560116814340478464,-0.02101284703700501,-0.47740937883697043,0.0009152860857038758,-0.1454310076555888,9.615683244053116,-0.43663249974567053
1560116814350501120,-0.018891458169165487,-0.49229426417982225,0.008317894154919014,-0.23022200779976784,9.506283939100726,-0.12942396687351032
1560116814360523776,-0.007223820786996293,-0.49229426417982225,0.007260378617404029,-0.19672671598800362,9.50480070447163,-0.029514933965898618
1560116814370546176,-0.0019203490810468793,-0.49229426417982225,0.0030303169296039267,-0.1691260104556164,9.541350599430446,-0.05093664726898317
1560116814380568832,0.008686594330851949,-0.5018631232922033,0.006202863542148884,-0.19334516772868776,9.638566907892711,-0.3089189855015479
1560116814390591744,0.013990065573151966,-0.5082423428712346,0.004087832467118913,-0.2840091082406432,9.760798602611285,-0.6343372673327339
1560116814400613888,0.019293537742750777,-0.5071791792665081,0.008317894154919014,-0.379433904707844,9.888298339676654,-0.9770837562506106
1560116814410636544,0.012929372066530997,-0.5210008415169654,0.008317894154919014,-0.19777941542778257,9.949061916334005,-1.173653426622563
1560116814420658944,0.005504511492742059,-0.5210008415169654,0.009375409692434,-0.12745216932396594,9.992186977406,-1.2513402533784228
1560116814430681600,-0.0029810433990542923,-0.5231272877017545,0.010432925229948986,-0.17589624185338287,10.016494095133357,-1.202194943666138
1560116814440704256,-0.01358798692686547,-0.5305696708855123,0.007260378617404029,-0.17087497519142344,9.890570011421072,-0.9252378488226842
1560116814450726656,-0.023134235904844536,-0.533759280675028,0.006202863542148884,-0.13827028056634272,9.744729050781356,-0.6146164517767244
1560116814460749568,-0.018891458169165487,-0.5401385597417274,0.005145348004633898,-0.05349238724393507,9.59888625443084,-0.2951689236314223
1560116814470772224,-0.014648681360785232,-0.5422649464388485,0.006202863542148884,-0.15020826813162208,9.527544531893554,-0.06776610128578126
1560116814480794624,-0.009345209654835818,-0.5475810024131533,0.006202863542148884,-0.2978251876956401,9.492057873498478,0.09975842942616213
1560116814490817280,-0.0019203490810468793,-0.5550234450845792,0.007260378617404029,-0.055608418264219195,9.467751116946719,0.07518613011747269
1560116814500839936,0.010807983198691473,-0.5667186611502473,0.007260378617404029,-0.08045530331542514,9.513354777605791,-0.08484045302550633
1560116814510862592,0.018232843308831015,-0.5656554975455208,0.004087832467118913,-0.3952903304078044,9.63486989853289,-0.39194858560927087
1560116814520884992,0.019293537742750777,-0.579477159795978,0.007260378617404029,-0.23151977674130503,9.88449632358294,-0.8070181213599781
1560116814530907648,0.02035423217667054,-0.577350773098857,0.0019728016232188617,-0.08875778273841275,10.081082117684197,-1.189348878264492
1560116814540930560,0.008686594330851949,-0.5847932157702829,0.007260378617404029,-0.1735470148882996,10.093236804398181,-1.4473987200784193
1560116814550952960,-0.0008596547630394663,-0.6028677109026503,0.006202863542148884,-0.19276168319329232,10.105390100891064,-1.3728550439912839
1560116814560975360,-0.009345209654835818,-0.5890460486521931,0.0019728016232188617,-0.1797342144558188,10.083493594610953,-1.1077954200611668
1560116814570998016,-0.018891458169165487,-0.6018044878102558,0.0009152860857038758,-0.15551145833625013,9.645954897097756,-0.4566004136998183
1560116814581020928,-0.016770070228624756,-0.6071205437845606,0.004087832467118913,-0.25782516418923956,9.375781034311611,-0.0621146236816102
1560116814591043072,-0.005102432150981467,-0.5996780416254666,0.007260378617404029,-0.5000520370272792,9.290704455072605,0.048465331784278615
1560116814601065984,-0.0008596547630394663,-0.6177525962455022,0.005145348004633898,-0.21299345770533268,9.47119831072515,-0.1738616796965431
1560116814611088640,0.010807983198691473,-0.6177525962455022,0.006202863542148884,-0.005136953556479376,9.663400930892504,-0.4676444485550863
1560116814621111040,0.011868676705312442,-0.6251950389169281,0.004087832467118913,-0.2110150984941423,9.784929889906193,-0.8239321956982464
1560116814631133696,0.015050760007071728,-0.6337007046807486,0.006202863542148884,-0.1726838304418391,9.898295744567088,-1.05635777885659
1560116814641156096,0.007625899896932187,-0.6315742584959594,0.007260378617404029,-0.029047878712786187,9.9955547166705,-1.2073561586495662
1560116814651178752,0.00020103955496794668,-0.6358270913778696,0.005145348004633898,-0.06538256224502437,9.934784213374115,-1.0844873689285914
1560116814661201408,-0.007223820786996293,-0.6464592033264793,0.004087832467118913,-0.09032232884816672,9.879731487464928,-0.8980438993234331
1560116814671224064,-0.012527292492945707,-0.6400799242597799,0.005145348004633898,-0.10243352222286609,9.831115923526468,-0.6400270745596612
1560116814681246464,-0.01358798692686547,-0.6411430878645064,0.0030303169296039267,-0.05147903137072103,9.708791927325493,-0.44647618254249277
1560116814691269120,-0.0157093748674062,-0.6645336389711787,0.0019728016232188617,-0.042372927547332,9.617192486569163,-0.28527620992427893
1560116814701329152,-0.011466598059025945,-0.6507120362083896,0.0019728016232188617,-0.1760877226727959,9.641589051097275,-0.18662138431595088
1560116814711352320,-0.007223820786996293,-0.6602808655769365,0.0009152860857038758,-0.18799392966065928,9.65778032078471,-0.23601781827441853
1560116814721374720,-0.005102432150981467,-0.6709129180378781,0.0019728016232188617,-0.15574866596767784,9.678873061919626,-0.3646276786120685
1560116814731397376,0.003383122624902535,-0.6624072522740576,0.0030303169296039267,-0.34952785433678346,9.824717329290669,-0.5734984633995105
1560116814741419776,0.0012617339888877088,-0.6730393047349992,0.004087832467118913,-0.41914974585830794,9.908263406575669,-0.7651880273942396
1560116814751442432,-0.0019203490810468793,-0.6719761411302727,0.005145348004633898,-0.3464836276269312,9.920416359337269,-0.9371966879781246
1560116814761465088,-0.006163126353076531,-0.6687864718530889,0.012547955380459275,-0.3995409940710467,9.84845843257849,-0.8009751630181845
1560116814771487744,-0.008284515220916056,-0.6719761411302727,0.022065595218094147,-0.3729963615319247,9.76016631214425,-0.6036796683154312
1560116814781510400,-0.010405903625106183,-0.6698497544331516,0.022065595218094147,-0.07018938509793976,9.662928333280941,-0.37021502968957154
1560116814791532800,-0.004041737717061705,-0.6634704753664522,0.015720501993004232,0.015634640932685146,9.589886389968193,-0.2427388703523207
1560116814801555456,-0.005102432150981467,-0.6645336389711787,0.016778017530519218,0.003562777850096224,9.540546431525245,-0.1844244861356054
1560116814811578112,0.004443817058822297,-0.6655969215512414,0.017835533068034204,0.1731397260074162,9.662097669296134,-0.35645614799441405
1560116814821600768,0.009747288764771711,-0.6634704753664522,0.014662986455489246,0.23079532448711812,9.744337140653538,-0.562544105345283
1560116814831623168,0.005504511492742059,-0.6645336389711787,0.013605471842493944,0.1581255358130546,9.780799052779317,-0.8082831615586885
1560116814841645824,0.006565205463012425,-0.6613440886693311,0.016778017530519218,0.11674394207096808,9.869604985884218,-0.9058884797687448
1560116814851668224,0.0012617339888877088,-0.6581544193921474,0.010432925229948986,0.0835622372673861,9.92568195561889,-0.9284005655668243
1560116814861690880,-0.005102432150981467,-0.6528384229055106,0.010432925229948986,0.05933782268911146,9.864908806712744,-0.8055251629556649
1560116814871713792,-0.010405903625106183,-0.6539015865102371,0.008317894154919014,0.0031488474957743207,9.780077613258657,-0.6259012734197498
1560116814881736192,-0.012527292492945707,-0.6528384229055106,0.012547955380459275,-0.06595079005098899,9.687143838999573,-0.4249901823168112
1560116814891758592,-0.004041737717061705,-0.6432695340492955,0.013605471842493944,-0.07806350934354434,9.66283332594439,-0.3512618917650416
1560116814901781504,-0.007223820786996293,-0.6443327571416901,0.014662986455489246,-0.0735224442151508,9.638522596412255,-0.33948079983956003
1560116814911803904,0.00020103955496794668,-0.6475223669312058,0.013605471842493944,-0.04929845508698613,9.61421413458375,-0.40091739459605713
1560116814921826304,0.005504511492742059,-0.6443327571416901,0.011490440767463972,0.0580375481260129,9.70457571436123,-0.525596899055707
1560116814931848960,-0.0029810433990542923,-0.6453959207464166,0.008317894154919014,0.1573794585743043,9.788984936660576,-0.651300825836211
1560116814941871616,0.00020103955496794668,-0.6368903739579324,0.007260378617404029,0.19371467731903588,9.801139824067224,-0.7495973642290233
1560116814951894272,0.005504511492742059,-0.6337007046807486,0.010432925229948986,0.2062044225700319,9.821271273882079,-0.7753214335194205
1560116814961916928,-0.0008596547630394663,-0.6337007046807486,0.012547955380459275,0.2048588897525786,9.840179667133038,-0.7596211060350752
1560116814971939840,-0.005102432150981467,-0.6326375410760221,0.004087832467118913,0.1806341128305572,9.767250683476567,-0.6858948148425067
1560116814981962240,-0.004041737717061705,-0.6251950389169281,0.005145348004633898,0.12336379379007874,9.721963685816675,-0.5842362444413358
1560116814991984896,-0.004041737717061705,-0.623068652219807,0.007260378617404029,0.026474201964873822,9.709809946359831,-0.4490845387663952
1560116815002007296,-0.004041737717061705,-0.6188158193378968,0.004087832467118913,-0.008365341038234934,9.67690013625378,-0.45032087232689144
1560116815012029952,-0.0019203490810468793,-0.6241318753122016,0.005145348004633898,-0.02645921185948552,9.686570148994344,-0.48111315573384
1560116815022052608,0.00020103955496794668,-0.6198790424302913,0.007260378617404029,-0.02645921185948552,9.832425252876417,-0.5302628856548148
1560116815032075008,-0.0019203490810468793,-0.6156262095483811,0.009375409692434,-0.07385871244867159,9.843505560138269,-0.6274966217623884
1560116815042097664,-0.0019203490810468793,-0.6145629864559865,0.006202863542148884,-0.14216780660314193,9.790863424697058,-0.7434146654104685
1560116815052120320,-0.0029810433990542923,-0.6081837073892871,0.009375409692434,-0.130055235785066,9.888103716657538,-0.7311267293084553
1560116815062142976,-0.006163126353076531,-0.606057320692166,0.014662986455489246,-0.11794413771622066,9.870307212924342,-0.6856167322296839
1560116815072165376,-0.009345209654835818,-0.6103101535740763,0.013605471842493944,-0.10583413217257837,9.712325308138757,-0.5996195400119729
1560116815082188032,-0.012527292492945707,-0.5986148780207401,0.012547955380459275,-0.021673715633554413,9.72989158887553,-0.4300700294638895
1560116815092210688,-0.008284515220916056,-0.606057320692166,0.014662986455489246,0.06014660954840119,9.739154400766813,-0.26104533170065697
1560116815102233088,-0.008284515220916056,-0.6071205437845606,0.012547955380459275,0.09648744186474553,9.629749568610643,-0.13815570625725512
1560116815112256000,-0.0029810433990542923,-0.6007413242055293,0.013605471842493944,0.10140697016994063,9.614939358802427,-0.11089594984795649
1560116815122278144,0.006565205463012425,-0.6145629864559865,0.010432925229948986,0.0898726053552732,9.651398016657543,-0.13897317906629822
1560116815132301056,0.004443817058822297,-0.6103101535740763,0.008317894154919014,0.0898726053552732,9.68786443728638,-0.2372793287395541
1560116815142323456,0.007625899896932187,-0.6166893731531076,0.010432925229948986,0.041161150122956104,9.735191185461774,-0.34106956832047475
1560116815152346368,0.010807983198691473,-0.6113733766664708,0.0019728016232188617,-0.0678503413069815,9.795965843650949,-0.4516590434090974
1560116815162368512,0.0023224281909827726,-0.6251950389169281,0.006202863542148884,-0.08462512990947602,9.867016957548076,-0.5414464932067656
1560116815172391424,0.00020103955496794668,-0.6241318753122016,0.007260378617404029,-0.08462512990947602,9.922056392188892,-0.5852655292541141
1560116815182414080,-0.010405903625106183,-0.6347639277731432,0.004087832467118913,-0.08462512990947602,9.922056392188892,-0.4992560677348334
1560116815192436736,-0.009345209654835818,-0.6368903739579324,0.007260378617404029,-0.1628705092864045,9.843536954042689,-0.29404498936707385
1560116815202421504,-0.0157093748674062,-0.6453959207464166,0.005145348004633898,-0.2763920746773278,9.72376897634224,-0.02842685350796351
1560116815212444160,-0.0157093748674062,-0.6485855900236004,0.007260378617404029,-0.22794440271315225,9.638687743159984,0.1435945898556751
1560116815222466816,-0.011466598059025945,-0.6475223669312058,0.008317894154919014,-0.20095693579310137,9.585910316567963,0.2884010108837907
1560116815232489472,-0.007223820786996293,-0.659217642484542,0.005145348004633898,-0.20095693579310137,9.573756822037785,0.398982944610959
1560116815242511872,0.003383122624902535,-0.6624072522740576,0.010432925229948986,-0.13977069572763684,9.561604489815995,0.375060429177774
1560116815252534272,0.007625899896932187,-0.6581544193921474,0.009375409692434,-0.07003287877659296,9.587525397149173,0.2726292250779335
1560116815262556928,0.015050760007071728,-0.6624072522740576,0.008317894154919014,-0.009483174589036178,9.733353890061627,0.00235398384538571
1560116815272579584,0.013990065573151966,-0.6698497544331516,0.005145348004633898,-0.018679789052144843,9.816966925542832,-0.2757777548763719
1560116815282602240,0.018232843308831015,-0.6624072522740576,0.008317894154919014,-0.06617736325466543,9.867935968262982,-0.5521263827727098
1560116815292624896,0.009747288764771711,-0.6719761411302727,0.005145348004633898,-0.09039832453571806,9.97731251623535,-0.6749842761329427
1560116815302647296,0.007625899896932187,-0.6719761411302727,0.008317894154919014,-0.09871096811480931,9.98558291627315,-0.6848718203392014
1560116815312670208,0.0012617339888877088,-0.6613440886693311,0.011490440767463972,-0.08659948663902582,9.864043236698508,-0.5497168996753061
1560116815322692608,-0.008284515220916056,-0.6687864718530889,0.0030303169296039267,-0.11503478344036361,9.752681497145431,-0.37343529291159405
1560116815332715264,-0.006163126353076531,-0.6772921376169094,0.012547955380459275,-0.1256345420148013,9.66912073698552,-0.21524027965653336
1560116815342738176,-0.005102432150981467,-0.6804818068940932,0.006202863542148884,-0.052958060685826105,9.66912073698552,-0.14151175530483093
1560116815352760320,-0.007223820786996293,-0.678355360709304,0.005145348004633898,-0.04954715495729407,9.653674713674077,-0.08339978342608752
1560116815362782976,0.00020103955496794668,-0.6741025873150619,0.008317894154919014,-0.08420453308383245,9.630629334573936,-0.03893892109725913
1560116815372805632,0.005504511492742059,-0.6741025873150619,0.006202863542148884,-0.0720942253054736,9.642782171118617,-0.1249381423116962
1560116815382828288,0.012929372066530997,-0.6698497544331516,0.005145348004633898,-0.04947716377901361,9.681293078543277,-0.2535744163336635
1560116815392850688,0.012929372066530997,-0.6751657509197884,0.008317894154919014,-0.013143351654361368,9.754215341653683,-0.4378732310718156
1560116815402873344,0.011868676705312442,-0.6709129180378781,0.005145348004633898,-0.08776537722778309,9.847381191869305,-0.5914710325541066
1560116815412896000,0.007625899896932187,-0.6751657509197884,0.010432925229948986,-0.14532526860214479,9.913599733506475,-0.7075579965778367
1560116815422918912,0.00020103955496794668,-0.6709129180378781,0.009375409692434,-0.07266174063646103,9.877140962677828,-0.7198438860459176
1560116815432941312,0.0012617339888877088,-0.6709129180378781,0.008317894154919014,-0.0916987915488776,9.863687148080317,-0.6391006800635834
1560116815442963712,-0.007223820786996293,-0.6730393047349992,0.007260378617404029,-0.16181489296652327,9.860758723544,-0.5039446930350987
1560116815452986368,-0.008284515220916056,-0.6687864718530889,0.009375409692434,-0.14970271840816884,9.763521612775325,-0.36878216256901
1560116815463009024,-0.009345209654835818,-0.6677233082483625,0.013605471842493944,-0.08557600716862832,9.692375308270142,-0.2599930477656274
1560116815473031680,-0.006163126353076531,-0.6730393047349992,0.007260378617404029,0.04766896164688811,9.65590812926231,-0.18626190278100874
1560116815483054336,-0.007223820786996293,-0.6666600851559679,0.009375409692434,0.010258395264436823,9.669809703908113,-0.21436879483675794
1560116815493076480,-0.0029810433990542923,-0.6602808655769365,0.010432925229948986,-0.00996453366255802,9.694117375391,-0.26631545895623143
1560116815503099392,0.0023224281909827726,-0.6613440886693311,0.007260378617404029,0.14751522149395688,9.718430129042032,-0.32776136855467203
1560116815513122048,0.004443817058822297,-0.6475223669312058,0.009375409692434,0.2062044225700319,9.727490951408186,-0.39691479180579625
1560116815523144704,0.003383122624902535,-0.6453959207464166,0.009375409692434,0.2084713379005881,9.729115831591942,-0.47163345054921874
1560116815533166848,0.005504511492742059,-0.6368903739579324,0.006202863542148884,0.2932507443376523,9.789884037467738,-0.5822134479018691
1560116815543189760,0.0023224281909827726,-0.6220054291274124,0.005145348004633898,0.3109723261322992,9.835126717686473,-0.6614007009443419
1560116815553212416,0.0012617339888877088,-0.6177525962455022,0.0009152860857038758,0.23830079931013082,9.859436247599943,-0.6982624218815024
1560116815563235072,-0.0019203490810468793,-0.6124365402711973,0.005145348004633898,0.16563285019023816,9.783459899872952,-0.6540181267535601
1560116815573257728,0.00020103955496794668,-0.5975516549283455,0.006202863542148884,0.12827388116118654,9.710759845128297,-0.6036063533366453
1560116815583280384,-0.0019203490810468793,-0.5879828255597985,0.005145348004633898,0.21305731417695814,9.722914307011477,-0.5913190938751135
1560116815593302784,0.0023224281909827726,-0.5720347766122202,0.008317894154919014,0.17703071946812465,9.727490951408186,-0.5483954506973369
1560116815603325184,0.003383122624902535,-0.5550234450845792,0.007260378617404029,0.07374460708953554,9.725036896872524,-0.4866920543055031
1560116815613348096,0.0012617339888877088,-0.5486442255055479,0.007260378617404029,0.21910405377231548,9.615634989529322,-0.41296026554859666
1560116815623370752,0.0012617339888877088,-0.5316328939779069,0.007260378617404029,0.2724950282581149,9.603647838070353,-0.4066092151129718
1560116815633393152,0.010807983198691473,-0.52206406460936,0.010432925229948986,0.19982740872753418,9.725184741216136,-0.49261533344447284
1560116815643415808,0.015050760007071728,-0.5135583988455394,0.010432925229948986,0.29619805894277546,9.776883529406632,-0.6795076240309463
1560116815653438464,0.012929372066530997,-0.49973670685124816,0.009375409692434,0.3787460089072126,9.829414835009246,-0.8613403070688574
1560116815663461120,0.009747288764771711,-0.4859150148569569,0.008317894154919014,0.2818463451436416,9.938808656494624,-0.9473548621255135
1560116815673483264,0.00020103955496794668,-0.4805989886264861,0.004087832467118913,0.22246995968382632,9.927715095986915,-0.9648533048732292
1560116815683505920,-0.0029810433990542923,-0.468903742816984,0.005145348004633898,0.18795187656542184,9.84445842421961,-0.9379737292358431
1560116815693528832,-0.005102432150981467,-0.45933488370460296,0.006202863542148884,0.24833076262038373,9.856576619320204,-0.790966762944757
1560116815703599360,-0.008284515220916056,-0.4476396081512668,0.009375409692434,0.2736340818286496,9.817965411157836,-0.637943884746799
1560116815713622016,-0.014648681360785232,-0.43700752594649117,0.006202863542148884,0.24941204556394117,9.708583987486808,-0.47822153244326293
1560116815723644672,-0.011466598059025945,-0.4274386965779442,0.007260378617404029,0.2845668350117944,9.66871538827425,-0.34861199931002945
1560116815733666816,-0.008284515220916056,-0.40830097835318213,0.008317894154919014,0.3225362586700129,9.636524210376047,-0.2523144035542604
1560116815743689728,-0.004041737717061705,-0.39979531258936163,0.008317894154919014,0.3225362586700129,9.575749255218078,-0.2523144035542604
1560116815753712128,0.004443817058822297,-0.3912896468255411,0.010432925229948986,0.31508198617320277,9.64214590073729,-0.3279360897469035
1560116815763734784,0.005504511492742059,-0.37959440101603903,0.007260378617404029,0.304033618128191,9.786215838125917,-0.4513443550778265
1560116815773757184,0.006565205463012425,-0.37427837478556825,0.008317894154919014,0.3645953626032056,9.810525022452916,-0.6110842701732645
1560116815783780096,0.007625899896932187,-0.36045668279127696,0.004087832467118913,0.38504946029346215,9.829804334018148,-0.7250536674341715
1560116815793802496,0.00020103955496794668,-0.3508878236788959,0.006202863542148884,0.3487129649328452,9.84195965479391,-0.7742036889579545
1560116815803825408,0.0012617339888877088,-0.3381293845208333,0.0019728016232188617,0.3320751299662593,9.834345559787971,-0.733423770652956
1560116815813848064,-0.008284515220916056,-0.33387655163892305,-0.00014222933624614964,0.32768293204175336,9.804113945429464,-0.6563225002537315
1560116815823870720,-0.005102432150981467,-0.31686522011128204,0.0030303169296039267,0.35190819855179994,9.706873682632525,-0.5211547266096216
1560116815833893120,-0.006163126353076531,-0.3083595840912956,0.004087832467118913,0.3020377387150082,9.698862355001438,-0.3859926551657411
1560116815843915520,-0.008284515220916056,-0.31261241697320585,0.005145348004633898,0.2059387774260386,9.746013708872232,-0.2523144035542604
1560116815853938688,-0.004041737717061705,-0.3051699445579459,-0.005429806445996277,0.18171378425146484,9.660929640216898,-0.2523144035542604
1560116815863961088,0.00020103955496794668,-0.288158672517973,0.005145348004633898,0.14755537257910323,9.670575716800412,-0.31783255565546675
1560116815873983488,0.0023224281909827726,-0.2817794231951076,0.0019728016232188617,0.09911245007809148,9.816413741682737,-0.4775510989098401
1560116815884005888,0.0012617339888877088,-0.2722105640827266,0.0019728016232188617,0.1682845884634338,9.814722633251392,-0.6173924712008336
1560116815894028544,-0.0019203490810468793,-0.2743369805236817,-0.00014222933624614964,0.242456621246182,9.806131576630996,-0.7141310779498168
1560116815904051200,-0.0008596547630394663,-0.2647681214113007,0.0030303169296039267,0.23034469853616185,9.90336666554932,-0.6649821167002693
1560116815914073856,-0.009345209654835818,-0.2626417347141796,0.0030303169296039267,0.18879114926718096,9.852879061180268,-0.48142800311879275
1560116815924096256,-0.010405903625106183,-0.25519926229891965,-0.001199744758196175,0.12906767416018103,9.707279542362903,-0.21136519530893333
1560116815934118912,-0.007223820786996293,-0.25094644428892643,-0.00014222933624614964,0.18963086403158147,9.597883488987417,0.022106358438029855
1560116815944141568,0.00020103955496794668,-0.252009652509404,0.004087832467118913,0.18623553483289557,9.537861510170794,0.19068627720440257
1560116815954164480,0.0012617339888877088,-0.24988323606844887,-0.0022572601801462006,0.08934220197164283,9.550015719343637,0.26440820540142057
1560116815964186368,0.009747288764771711,-0.2573256787398748,-0.003314775602096226,0.05097923678243256,9.591527274577647,0.12046003070979774
1560116815974209280,0.015050760007071728,-0.2626417347141796,-0.003314775602096226,0.002014444810438668,9.662486727533398,-0.08364539591579825
1560116815984231936,0.019293537742750777,-0.24988323606844887,-0.003314775602096226,-0.1433113075410272,9.82047534397129,-0.31707532389284165
1560116815994254592,0.018232843308831015,-0.24669361140701618,0.0019728016232188617,-0.12788473643755988,9.89047677252323,-0.5060377498721521
1560116816004277248,0.010807983198691473,-0.24563040318653862,0.009375409692434,-0.00683082724360741,9.902750992257364,-0.6654608980983899
1560116816014299904,0.011868676705312442,-0.2339351425051195,0.009375409692434,0.09007748442545169,9.963531430539796,-0.7023275496365528
1560116816024322560,0.0023224281909827726,-0.22436628339273845,0.008317894154919014,0.1918483529029923,9.970575170932708,-0.6749953263688392
1560116816034345216,-0.007223820786996293,-0.21267102271131932,0.012547955380459275,0.3008556384172686,9.897648399633631,-0.552122865797536
1560116816044367872,-0.010405903625106183,-0.19778612249655048,0.009375409692434,0.37105609039021314,9.717597906436598,-0.2028180001942979
1560116816054390528,-0.009345209654835818,-0.19247011113799672,0.011490440767463972,0.42676450560954093,9.53532298353579,0.19777144001285277
1560116816064412928,-0.011466598059025945,-0.18928048647656404,0.004087832467118913,0.46310103872275304,9.450239981223449,0.578684011074456
1560116816074435328,0.00020103955496794668,-0.18502765359465378,0.007260378617404029,0.46311847313916926,9.459917754150785,0.6648334036544862
1560116816084458240,0.018232843308831015,-0.18183804380513813,0.0019728016232188617,0.4388951313708894,9.532843009187845,0.5542505017845858
1560116816094480640,0.027779093214108874,-0.17545879448227275,-0.00014222933624614964,0.3058096218186023,9.775696887386522,-0.16988106830697858
1560116816104503040,0.027779093214108874,-0.17545879448227275,-0.00014222933624614964,0.16297041579772814,9.989732551668089,-0.7920623150423614
1560116816114525440,0.023536315478429826,-0.18821727825608647,0.0009152860857038758,0.005531849418646512,10.159876107208216,-1.2589291126765358
1560116816124548352,0.010807983198691473,-0.18183804380513813,-0.00014222933624614964,-0.1905328006913426,10.204134555908778,-1.3146307278606084
1560116816134571008,-0.005102432150981467,-0.18609086181513135,0.0009152860857038758,-0.34656577600307886,10.17338879955912,-1.1787400999289064
1560116816144593664,-0.022073541470924773,-0.20203895537846073,-0.00014222933624614964,-0.2981159252445467,9.966754947999384,-0.6872283075051614
1560116816154616064,-0.03374117838944457,-0.20735499648084854,-0.001199744758196175,-0.2929329418846685,9.723951169012494,-0.12990520320273335
1560116816164638720,-0.028437708074443346,-0.20416537181941585,-0.003314775602096226,-0.31715676842880375,9.456554219876768,0.4721698784905407
1560116816174661376,-0.01995215260308525,-0.215860647372752,0.007260378617404029,-0.18477946519250618,9.346300697829339,0.6832011090696234
1560116816184684032,-0.004041737717061705,-0.2233030751722609,0.007260378617404029,-0.10880055431318858,9.323220196292487,0.7224180422774753
1560116816194706688,0.008686594330851949,-0.2286191162746487,0.005145348004633898,-0.12095563733057009,9.43299963752187,0.5004593360368979
1560116816204672512,0.019293537742750777,-0.23074553271560383,0.006202863542148884,-0.05617235473382762,9.647857131087328,-0.002155595473491978
1560116816214694912,0.024597009912349588,-0.2318087409360814,0.005145348004633898,0.03325602536178717,9.879249356388492,-0.5512807487178831
1560116816224717824,0.0214149266105903,-0.24456720983797808,0.005145348004633898,0.142273996988573,10.061582956806157,-0.9813765568833206
1560116816234740736,0.012929372066530997,-0.24031439182798486,0.0030303169296039267,0.11519157129403432,10.150454701308,-1.178900384635345
1560116816244763136,-0.0008596547630394663,-0.24456720983797808,0.004087832467118913,-0.005906748538059697,10.174759435089902,-1.215755751937137
1560116816254785792,-0.012527292492945707,-0.24988323606844887,-0.001199744758196175,0.01692117682116075,10.006462064480193,-0.8631938384242539
1560116816264808448,-0.028437708074443346,-0.2573256787398748,-0.00014222933624614964,-0.02964158258123522,9.822094643274658,-0.41111731218216796
1560116816274830848,-0.026316317352006235,-0.261578511621785,-0.00014222933624614964,-0.18708343961167467,9.615487199625539,0.19090768173195383
1560116816284853504,-0.02525562477268406,-0.2743369805236817,0.0009152860857038758,-0.18213642793018806,9.408879683969191,0.5991215610409055
1560116816294875904,-0.0157093748674062,-0.27858981340559197,-0.00014222933624614964,-0.16098438103030605,9.261614599904725,0.860819758287452
1560116816304899072,0.00020103955496794668,-0.2796530067541525,0.005145348004633898,-0.2578742562545,9.37099737072504,0.7133811197435914
1560116816314921472,0.017172148874911253,-0.288158672517973,0.0009152860857038758,-0.21972853507674278,9.565943876658963,0.270376250806695
1560116816324943872,0.027779093214108874,-0.29134828230748866,0.004087832467118913,-0.086526343482203,9.821130388589655,-0.38070650409876583
1560116816334966784,0.025657702491671763,-0.2956011151893989,0.0019728016232188617,-0.15624943276976205,10.064358396864586,-0.9228476147280708
1560116816344989184,0.02035423217667054,-0.2945379218408384,0.006202863542148884,-0.16368807174389305,10.195206609142137,-1.274352727017167
1560116816355011584,0.0023224281909827726,-0.29879072497891457,0.008317894154919014,-0.06680654072932565,10.146595697060562,-1.3234947536365942
1560116816365033984,-0.014648681360785232,-0.30304352811699076,0.0019728016232188617,-0.064829701082792,10.021789356525522,-0.9489933444411417
1560116816375056896,-0.027377013640523584,-0.2998539183274751,0.007260378617404029,-0.06248899626497502,9.8404020781165,-0.42384275501805985
1560116816385079552,-0.029498400653765522,-0.3019803347684302,0.006202863542148884,0.05863020016188078,9.500078963828807,0.2519557876986802
1560116816395101952,-0.022073541470924773,-0.3051699445579459,0.0019728016232188617,0.08811660109735583,9.32245001886113,0.6131101443331634
1560116816405124352,-0.006163126353076531,-0.30942277743985613,0.006202863542148884,0.05178332887510822,9.261681864171578,0.7482605858150984
1560116816415147264,0.007625899896932187,-0.3104860005322507,0.0030303169296039267,0.05109533295035362,9.367854200748212,0.49766361452580804
1560116816425169920,0.0214149266105903,-0.3136756103217664,0.006202863542148884,0.04648978649003112,9.523454101435666,0.18825368019321284
1560116816435192320,0.026718398780189112,-0.31154919388081126,0.004087832467118913,0.03438049473668002,9.754337568907927,-0.2048529068676227
1560116816445214976,0.029900480227350812,-0.31899163655223717,-0.00014222933624614964,0.06002245614188255,9.956864313855704,-0.6076350888756858
1560116816455237632,0.025657702491671763,-0.31686522011128204,-0.001199744758196175,0.08122227301414246,10.12747369871514,-1.0065564331940369
1560116816465260288,0.019293537742750777,-0.3136756103217664,-0.00014222933624614964,0.03278179466640656,10.188236978606875,-1.3751191033313763
1560116816475282944,0.0023224281909827726,-0.31154919388081126,-0.001199744758196175,-0.0016703115679476532,10.13670091212023,-1.4172918853887961
1560116816485305600,-0.014648681360785232,-0.31261241697320585,-0.00014222933624614964,-0.025890550741815607,10.003022908472511,-1.2207250973481356
1560116816495328512,-0.01995215260308525,-0.3051699445579459,0.0009152860857038758,-0.2511747062530984,9.798117451157031,-0.6041948427371063
1560116816505350656,-0.03268048395552481,-0.3019803347684302,0.007260378617404029,-0.46764000445245835,9.550411259625783,0.0270382705097722
1560116816515373056,-0.024194930338764298,-0.29028508895892813,0.012547955380459275,-0.6614433809933695,9.23437640846864,0.6660168412887001
1560116816525395968,-0.010405903625106183,-0.28709547916941247,0.019950564143064176,-0.49857778247434226,9.229178108936857,0.8574351102673953
1560116816535418624,0.009747288764771711,-0.2860322560770179,0.026295655519114725,-0.24689280350991682,9.329058962197879,0.8204987743356128
1560116816545441024,0.030961172806672987,-0.26902095429321093,0.03264074874420464,-0.06523993875548181,9.499196548422747,0.3167935375860541
1560116816555463680,0.04687158746087183,-0.27114737073416606,0.028410688443184062,0.2621598222618457,9.76684055015821,-0.36998121774401893
1560116816565486080,0.04368950601371013,-0.26902095429321093,0.028410688443184062,0.6981435490793846,10.107127661238465,-1.1931410564656804
1560116816575508736,0.036264646830869385,-0.2541360689503591,0.023123108906569767,0.8633772001716213,10.270227528282366,-1.7058518874848416
1560116816585531392,0.01611145444099149,-0.2530728458579645,0.015720501993004232,0.962361213692219,10.342474282623334,-1.96779020424989
1560116816595553792,-0.0029810433990542923,-0.252009652509404,0.008317894154919014,0.962361213692219,10.269547207246472,-1.8203401013794547
1560116816605576704,-0.023134235904844536,-0.25519926229891965,0.0030303169296039267,0.7663319963132506,10.046735152810516,-1.2562079807038566
1560116816615599360,-0.03268048395552481,-0.25094644428892643,-0.0022572601801462006,0.5037339658903212,9.766928835095827,-0.5597328064139153
1560116816625622016,-0.036923263545801444,-0.24456720983797808,-0.006487321983511263,0.20093148928509152,9.426601269631185,0.17751295090641184
1560116816635644416,-0.027377013640523584,-0.24350400161750052,-0.005429806445996277,-0.012234349215414456,9.245401233506474,0.6000135552410001
1560116816645667072,-0.010405903625106183,-0.24456720983797808,-0.007544837521026249,-0.15756442267065593,9.184634948220149,0.784305766548155
1560116816655689472,0.007625899896932187,-0.24669361140701618,-0.00014222933624614964,-0.27944263439047773,9.335681902952805,0.4451731789598941
1560116816665712384,0.027779093214108874,-0.24031439182798486,0.0009152860857038758,-0.3382718261677441,9.556173726763648,-0.01943748045887947
1560116816675734784,0.029900480227350812,-0.24031439182798486,0.0019728016232188617,-0.28983464500048195,9.884270584100877,-0.670520273654322
1560116816685757440,0.030961172806672987,-0.23712476716655218,-0.00014222933624614964,-0.1759756025821553,10.082573797552342,-1.163153621228013
1560116816695779840,0.022475619189912477,-0.24350400161750052,0.0030303169296039267,-0.06732483459295958,10.205523742184546,-1.5159887420714382
1560116816705732864,0.0023224281909827726,-0.2360615589460746,0.005145348004633898,-0.07935138039132258,10.15724862054121,-1.4305843822343354
1560116816715755776,-0.010405903625106183,-0.23712476716655218,0.006202863542148884,-0.002571393150475651,10.019429479136619,-1.1295356572167246
1560116816725778176,-0.01995215260308525,-0.24244079339702296,0.008317894154919014,0.142766024459523,9.812813431085427,-0.6626383024142743
1560116816735800832,-0.026316317352006235,-0.2392511836075073,0.008317894154919014,0.11301777466328353,9.629599749557986,-0.17199792808516473
1560116816745823232,-0.01995215260308525,-0.24031439182798486,0.006202863542148884,0.10746008537373548,9.478169509585333,0.21243984047102116
1560116816755846144,-0.012527292492945707,-0.24031439182798486,0.008317894154919014,0.1559045928102534,9.380940776649158,0.4090229590173792
1560116816765868544,0.0012617339888877088,-0.23712476716655218,0.004087832467118913,0.1120475890089272,9.441175522492616,0.28723671300587794
1560116816775890944,0.015050760007071728,-0.24775681962749374,0.005145348004633898,0.045241670813206084,9.56621160936619,0.014636463250469592
1560116816785913344,0.019293537742750777,-0.24775681962749374,0.004087832467118913,0.008915955540210622,9.772779150224272,-0.5258529587548284
1560116816795936256,0.019293537742750777,-0.2488200278479713,-0.001199744758196175,0.020059512662040545,9.952168956218827,-0.9632565239947029
1560116816805958912,0.017172148874911253,-0.25094644428892643,0.0009152860857038758,0.06851078813539162,10.110187489313974,-1.3196131621390745
1560116816815981568,0.005504511492742059,-0.24775681962749374,0.004087832467118913,-0.010833360201464262,10.09330825435489,-1.2044916646722634
1560116816826004224,-0.011466598059025945,-0.24988323606844887,0.004087832467118913,-0.03052783487605222,10.003695575674294,-0.9637150598428847
1560116816836026880,-0.018891458169165487,-0.25094644428892643,0.0030303169296039267,0.06636319668037141,9.797079540852982,-0.5336806094185012
1560116816846049536,-0.01995215260308525,-0.2413775851765454,0.007260378617404029,-0.056888472119396793,9.645695001018904,-0.17809376628667417
1560116816856071680,-0.014648681360785232,-0.24563040318653862,0.006202863542148884,-0.19950890636853794,9.527221847805054,0.10365462276555062
1560116816866094592,-0.009345209654835818,-0.24669361140701618,0.011490440767463972,-0.0663043048475716,9.490765720925818,0.11593942662828602
1560116816876117248,0.00020103955496794668,-0.2413775851765454,0.011490440767463972,0.006379695959060417,9.535292802368575,-0.028692419821094106
1560116816886139648,0.006565205463012425,-0.24669361140701618,0.008317894154919014,0.030600437414578095,9.644668373637405,-0.29897729503238746
1560116816896162560,0.013990065573151966,-0.24563040318653862,0.010432925229948986,0.03170669674789384,9.800438325087667,-0.6747903567789557
1560116816906185216,0.011868676705312442,-0.23287194915655895,0.010432925229948986,0.06594386975437644,9.93266315954848,-0.9905361195882914
1560116816916207616,0.007625899896932187,-0.23712476716655218,0.009375409692434,0.16283548424700534,10.01774049842219,-1.187124481520734
1560116816926230016,-0.006163126353076531,-0.23287194915655895,0.010432925229948986,0.20504306984303144,9.993068556950334,-1.078604690996891
1560116816936252672,-0.017830763735245725,-0.2360615589460746,0.010432925229948986,0.21273835878061167,9.913870793166366,-0.8436492327292989
1560116816946275584,-0.016770070228624756,-0.22968232449512627,0.010432925229948986,0.12795669326434023,9.731558867842738,-0.46275253030784336
1560116816956298240,-0.018891458169165487,-0.2392511836075073,0.004087832467118913,0.04984426730426306,9.582716105627277,-0.16982968209732446
1560116816966320640,-0.016770070228624756,-0.2413775851765454,0.004087832467118913,-0.022828758810028785,9.461169565626504,0.05134534773629845
1560116816976343040,-0.004041737717061705,-0.24456720983797808,0.005145348004633898,0.031071136002799316,9.535922401731064,-0.054331901133524985
1560116816986365696,-0.0019203490810468793,-0.24244079339702296,0.0019728016232188617,0.05356932610719932,9.62948519784896,-0.24154544240113102
1560116816996388352,0.006565205463012425,-0.23818797538702974,0.005145348004633898,0.005128848939032191,9.738858495597032,-0.5486809505898772
1560116817006410752,0.007625899896932187,-0.2392511836075073,0.0030303169296039267,0.029178484368661425,9.848249864771066,-0.8098999768232611
1560116817016433152,0.006565205463012425,-0.23499835072559705,0.008317894154919014,0.07048396915281341,9.941513130329781,-1.017604816107457
1560116817026456320,-0.0029810433990542923,-0.22755590805417114,0.005145348004633898,0.07048396915281341,9.941513130329781,-1.0053169912172921
1560116817036478976,-0.007223820786996293,-0.22436628339273845,0.007260378617404029,0.11021900710634275,9.894993423350837,-0.905690536506968
1560116817046501120,-0.014648681360785232,-0.22649269983369358,0.006202863542148884,0.1828913903039828,9.809912392957218,-0.7336670544396191
1560116817056524032,-0.01995215260308525,-0.2286191162746487,0.006202863542148884,0.1295265997034114,9.724831320313351,-0.4919036122227332
1560116817066546688,-0.017830763735245725,-0.22649269983369358,0.007260378617404029,0.11077641296183524,9.639752824926715,-0.28857878901923667
1560116817076569088,-0.0157093748674062,-0.22649269983369358,0.006202863542148884,0.17133277436746194,9.554676750278796,-0.1657129053465902
1560116817086591744,-0.007223820786996293,-0.22223986695178333,0.0030303169296039267,0.15976972005513887,9.587206228712517,-0.225757208543577
1560116817096614656,-0.0019203490810468793,-0.22755590805417114,0.006202863542148884,0.13038906332593697,9.660135679208645,-0.3680431843179431
1560116817106636800,0.003383122624902535,-0.22542949161321602,0.0030303169296039267,0.14250112502932052,9.73306270965625,-0.6260784552923966
1560116817116659456,0.0012617339888877088,-0.2233030751722609,0.0009152860857038758,0.10858993453130075,9.825783838337433,-0.770726640353497
1560116817126682112,-0.006163126353076531,-0.2179870489417901,0.0019728016232188617,0.03591950058101723,9.935171763616227,-0.8198748712521825
1560116817136705024,-0.0008596547630394663,-0.215860647372752,0.004087832467118913,0.1458056243792459,9.83846396964443,-0.6722482873726591
1560116817146727680,-0.010405903625106183,-0.21160781449084176,0.005145348004633898,0.19252711547334656,9.733221792209102,-0.4873547716360214
1560116817156750080,-0.008284515220916056,-0.20735499648084854,0.0019728016232188617,0.09562975321980044,9.635985287600143,-0.25389224599622423
1560116817166772480,0.00020103955496794668,-0.20522858003989342,0.0009152860857038758,0.10636295870553322,9.619752297527498,-0.19330650742771205
1560116817176795136,0.003383122624902535,-0.19565970605559535,0.004087832467118913,0.15478687427624166,9.635286310398024,-0.21042163184123644
1560116817186817792,0.006565205463012425,-0.19778612249655048,0.004087832467118913,0.20301666860680218,9.671585713840434,-0.3327415230509846
1560116817196840192,0.009747288764771711,-0.19459652757895185,0.0019728016232188617,0.18049610466011914,9.740297551950368,-0.4749633353322546
1560116817206935808,0.010807983198691473,-0.18928048647656404,0.0019728016232188617,0.09509045033316454,9.838246249702227,-0.6358698454257729
1560116817216958464,0.008686594330851949,-0.19247011113799672,0.0019728016232188617,0.12396974180552703,9.87844731255594,-0.7494725294732262
1560116817226981120,0.0012617339888877088,-0.18821727825608647,-0.003314775602096226,0.1439496270027221,9.906703667275364,-0.8185759756106221
1560116817237003520,0.0012617339888877088,-0.18821727825608647,0.005145348004633898,0.13183655711218034,9.918858678899403,-0.8062875284228405
1560116817247026432,-0.011466598059025945,-0.18609086181513135,0.0019728016232188617,0.12864987776019277,9.85039557691631,-0.6491109115140787
1560116817257048832,-0.011466598059025945,-0.18183804380513813,0.0019728016232188617,0.1253502483571349,9.75481427259693,-0.44691859814189805
1560116817267071488,-0.01358798692686547,-0.1669531584622863,0.0030303169296039267,0.10112569005365145,9.669731116862176,-0.2871796643520538
1560116817277094144,-0.01358798692686547,-0.17333237804131763,0.0019728016232188617,0.06392965814506278,9.649732813914438,-0.18665731829421017
1560116817287116800,-0.005102432150981467,-0.170142783123719,0.004087832467118913,0.01548054153809586,9.686197283300102,-0.13750687473439
