#timestamp [ns],w_RS_S_x [rad s^-1],w_RS_S_y [rad s^-1],w_RS_S_z [rad s^-1],a_RS_S_x [m s^-2],a_RS_S_y [m s^-2],a_RS_S_z [m s^-2]
1560000083922423296,-0.02101284703700501,-0.013851450773477159,0.0019728016232188617,-0.0018832308493692664,9.692417521881453,0.23053292533652842
1560000083932446208,-0.016770070228624756,-0.01704106985794096,-0.001199744758196175,0.010231135517915015,9.655946765302954,0.4394583600299107
1560000083942468608,-0.012527292492945707,-0.019167481651422014,0.0009152860857038758,0.0323711964072909,9.589293785129712,0.5364799060181205
1560000083952491776,-0.007223820786996293,-0.020230688012909948,-0.001199744758196175,0.04834314651400535,9.530162686913913,0.590673412745117
1560000083962514432,-0.0019203490810468793,-0.019167481651422014,0.0009152860857038758,0.0362296072603975,9.518006599257427,0.5783844905956501
1560000083972537088,0.0023224281909827726,-0.02129389437439788,0.0009152860857038758,0.04689043652389038,9.58965278301293,0.4890766683128781
1560000083982560000,0.012929372066530997,-0.025546719820349617,-0.00014222933624614964,0.07175994678514647,9.709314656795478,0.35031436593799864
1560000083992582912,0.01611145444099149,-0.022357100735885815,0.0019728016232188617,0.12021712805279053,9.757941437215303,0.07994191249341037
1560000084002605312,0.012929372066530997,-0.02873633890481342,-0.001199744758196175,0.09131306828734448,9.811735055302936,-0.13283729924968957
1560000084012627968,0.011868676705312442,-0.014914657134965092,-0.001199744758196175,-0.04190616109304121,9.872501946682332,-0.26798495621791524
1560000084022651136,0.009747288764771711,-0.02129389437439788,-0.0022572601801462006,0.044689801702966256,9.923256985200812,-0.3524807428309834
1560000084032673792,-0.0008596547630394663,-0.025546719820349617,-0.00014222933624614964,0.1235696702027821,9.94732845557206,-0.3848457464983088
1560000084042696704,-0.006163126353076531,-0.020230688012909948,-0.001199744758196175,0.01454522468825023,9.886547177687092,-0.27424311305154814
1560000084052719360,-0.012527292492945707,-0.02129389437439788,0.0030303169296039267,0.011331611553608671,9.81817887317542,-0.1176315081643725
1560000084062742016,-0.0157093748674062,-0.020230688012909948,0.0030303169296039267,0.06963122086812266,9.745520494236027,0.0664314630988083
1560000084072764928,-0.01358798692686547,-0.022357100735885815,-0.0022572601801462006,0.033273528028250225,9.684712104042136,0.23855676029787112
1560000084082778624,-0.011466598059025945,-0.024483513458861683,0.0019728016232188617,0.04816604354385057,9.63424661383987,0.3793267225009063
1560000084092801792,-0.007223820786996293,-0.022357100735885815,0.0019728016232188617,0.13296989280688754,9.597774447636501,0.4776483730608197
1560000084102824704,-0.0008596547630394663,-0.024483513458861683,-0.00014222933624614964,0.07831358988929325,9.601289972856629,0.5153287130778862
1560000084112847360,-0.0019203490810468793,-0.022357100735885815,-0.0022572601801462006,0.023059042241897802,9.616140713010815,0.5153887043321429
1560000084122870272,0.009747288764771711,-0.01704106985794096,0.0009152860857038758,0.07151795290273055,9.640454667207838,0.4293580206512364
1560000084132892928,0.008686594330851949,-0.022357100735885815,-0.0022572601801462006,0.10492326329556323,9.67987104459395,0.3127955372877173
1560000084142915840,0.01611145444099149,-0.020230688012909948,0.0019728016232188617,0.12864987776019277,9.728748792899228,0.17735831260601684
1560000084152938240,0.015050760007071728,-0.027673132543325485,-0.00014222933624614964,0.12864987776019277,9.789525669633704,0.029897322190346243
1560000084162961152,0.015050760007071728,-0.02129389437439788,-0.0022572601801462006,0.1184728101908574,9.845198584502624,-0.10208116499668883
1560000084172983808,0.013990065573151966,-0.013851450773477159,-0.00014222933624614964,0.09424861187367718,9.893817760671475,-0.21266803098841658
1560000084183006208,0.007625899896932187,-0.012788244411989225,-0.001199744758196175,0.07002174489567561,9.93248100655691,-0.2326451150633293
1560000084193029376,0.0012617339888877088,-0.01704106985794096,0.0009152860857038758,0.048443804387648025,9.952987475262539,-0.22457538077718675
1560000084203052544,-0.005102432150981467,-0.007472213069296962,-0.00014222933624614964,0.03632878854413719,9.916515373266039,-0.18770421140544094
1560000084213075200,-0.010405903625106183,-0.015977862566958212,0.0019728016232188617,0.04669406526272264,9.85748059092049,-0.09761561548250394
1560000084223098112,-0.014648681360785232,-0.013851450773477159,-0.0022572601801462006,0.06981828716788925,9.78541484873629,0.025982143839311765
1560000084233121024,-0.01995215260308525,-0.012788244411989225,-0.0022572601801462006,0.033474644357205395,9.761100649639818,0.1857509943830939
1560000084243143424,-0.01995215260308525,-0.0064090067078090285,-0.0022572601801462006,0.03763108182251355,9.69614336012523,0.3455231738414093
1560000084253166080,-0.016770070228624756,-0.008535419430784896,0.0019728016232188617,0.0982122824172114,9.57455659039817,0.5053143822207117
1560000084263188736,-0.011466598059025945,-0.00959862579227283,0.0019728016232188617,0.11916694694603988,9.54244077867904,0.5847030121769179
1560000084273211648,-0.005102432150981467,-0.007472213069296962,-0.00014222933624614964,0.12601742212617323,9.543491347470916,0.6167806522283754
1560000084283234560,0.003383122624902535,-0.004282594217206864,-0.003314775602096226,0.11390161279854603,9.592124805550103,0.5430335004233998
1560000084293257216,0.010807983198691473,-0.003219387971905782,0.004087832467118913,0.1242108675415356,9.633254325709027,0.39345997081243633
1560000084303279872,0.015050760007071728,-0.001092975481303618,-0.001199744758196175,0.14703285950110775,9.670937259764727,0.19681478953119133
1560000084313302784,0.01611145444099149,-0.005345800578694798,-0.0022572601801462006,0.08646462380297668,9.780342418955486,0.00019079125674781316
1560000084323325440,0.015050760007071728,-0.005345800578694798,0.0009152860857038758,0.05109533295035362,9.854345565580575,-0.16064479124614162
1560000084333348352,0.011868676705312442,-0.0064090067078090285,-0.005429806445996277,0.05109533295035362,9.878659764677046,-0.271254003848329
1560000084343371264,0.006565205463012425,-0.0021561817266047,-0.003314775602096226,0.03133466408878688,9.90297346930719,-0.3016763568519477
1560000084353393664,0.006565205463012425,-0.0021561817266047,0.0009152860857038758,0.01231806054543405,9.911596458014749,-0.2954607919581067
1560000084363416320,-0.0029810433990542923,-2.9769236002535893e-05,-0.001199744758196175,0.01231806054543405,9.862965052048501,-0.22171583252936644
1560000084373439488,-0.010405903625106183,0.003159849616087562,0.0030303169296039267,0.02721709728472502,9.806851987166313,-0.11017561000063555
1560000084383462144,-0.010405903625106183,-0.0021561817266047,0.0009152860857038758,0.051273160107817614,9.746054469287296,0.025400982395518464
1560000084393485056,-0.011466598059025945,-0.0021561817266047,-0.0022572601801462006,0.06338932845891773,9.68526144570408,0.1851912076517351
1560000084403507712,-0.008284515220916056,0.001033437125485398,0.0009152860857038758,0.07550543252998944,9.634546695544868,0.30932152860458384
1560000084413530624,-0.010405903625106183,-0.004282594217206864,-0.00014222933624614964,0.08762214122664327,9.598068890848582,0.38307416192049354
1560000084423553280,-0.004041737717061705,0.004223055977575496,-0.003314775602096226,0.06027913560051175,9.601193416705648,0.376757849226821
1560000084433576192,0.004443817058822297,-2.9769236002535893e-05,-0.001199744758196175,0.03170669674789384,9.621150808865925,0.33115118900981355
1560000084443598848,0.007625899896932187,-0.0021561817266047,-0.00014222933624614964,0.03170669674789384,9.669778889571687,0.20825133375504942
1560000084453621504,0.010807983198691473,-0.003219387971905782,-0.00014222933624614964,0.024275375586379124,9.725864220369214,0.07781302196077058
1560000084463643904,0.013990065573151966,-2.9769236002535893e-05,-0.00014222933624614964,0.012161612296965121,9.78633118886582,-0.05704983942507353
1560000084473666816,0.011868676705312442,-0.001092975481303618,-0.00014222933624614964,4.940618759993222e-05,9.822795441906424,-0.16763769267905676
1560000084483689728,0.007625899896932187,-0.0021561817266047,-0.00014222933624614964,0.002915956645254174,9.854252018196478,-0.25290729666064005
1560000084493712640,0.006565205463012425,-0.0064090067078090285,0.0030303169296039267,0.02714541079565292,9.878566578681165,-0.30206767365431153
1560000084503735296,0.0023224281909827726,0.001033437125485398,0.0030303169296039267,0.041540785480804115,9.863406624937586,-0.25146364016589046
1560000084513758208,-0.004041737717061705,-0.005345800578694798,0.0009152860857038758,0.05365602553082833,9.83395166222817,-0.17252442708780227
1560000084523781120,-0.007223820786996293,-0.0021561817266047,0.0019728016232188617,0.06577183367833267,9.785318204148982,-0.07419489693479536
1560000084533803776,-0.006163126353076531,-0.007472213069296962,0.0019728016232188617,0.06308146496493572,9.736689806889498,0.039144471029591496
1560000084543826688,-0.008284515220916056,-0.007472213069296962,0.0009152860857038758,0.05109533295035362,9.688191400044762,0.16152143953527764
1560000084553849344,-0.006163126353076531,-0.010661831689013357,0.004087832467118913,0.05109533295035362,9.651719017219296,0.23526309149019256
1560000084563872256,-0.004041737717061705,-0.005345800578694798,0.0019728016232188617,0.05109533295035362,9.630207260703742,0.2737039973505656
1560000084573894656,0.003383122624902535,-0.001092975481303618,0.0030303169296039267,0.05109533295035362,9.630207260703742,0.26138684857293937
1560000084583882496,0.007625899896932187,-0.004282594217206864,-0.001199744758196175,0.03147559835841649,9.649895908959499,0.16952049411057818
1560000084593905152,0.009747288764771711,-2.9769236002535893e-05,-0.00014222933624614964,0.019922961730262354,9.679296094317499,0.06149035775339291
1560000084603928064,0.009747288764771711,-0.008535419430784896,0.0009152860857038758,0.05626930562623745,9.727927500283746,-0.03683624563995554
1560000084613950976,0.015050760007071728,0.003159849616087562,0.005145348004633898,0.055732585306459845,9.769151884740877,-0.1426328553851997
1560000084623973632,0.010807983198691473,-0.003219387971905782,0.0030303169296039267,0.03160698853716494,9.80541795242434,-0.25282016127187174
1560000084633996288,0.009747288764771711,-0.003219387971905782,-0.003314775602096226,0.019492729107623098,9.817573550257894,-0.31426826223414395
1560000084644019200,0.0012617339888877088,-0.00959862579227283,0.0030303169296039267,0.01231806054543405,9.819815744693777,-0.3506608919895484
1560000084654042112,0.0023224281909827726,-0.008535419430784896,0.005145348004633898,0.01231806054543405,9.80765931565848,-0.3506608919895484
1560000084664064768,-0.0008596547630394663,-0.008535419430784896,0.0030303169296039267,0.0025375832068490287,9.795502582607517,-0.3010506107342409
1560000084674087680,-0.0008596547630394663,-0.00959862579227283,-0.00014222933624614964,-0.004564324565484602,9.77580011068414,-0.23451670142115438
1560000084684110080,0.00020103955496794668,-0.0064090067078090285,0.0009152860857038758,0.007549645510093841,9.727174632230776,-0.14849140481664974
1560000084694132992,-0.007223820786996293,-0.005345800578694798,0.0030303169296039267,0.004971383187521924,9.700661730231927,-0.10717629152001887
1560000084704155904,-0.0008596547630394663,-0.010661831689013357,0.0019728016232188617,-0.006923615946940607,9.688577475126408,-0.09533273180862646
1560000084714178560,0.0012617339888877088,-0.010661831689013357,0.0019728016232188617,0.01730310131918179,9.688577475126408,-0.15677626658321014
1560000084724201472,-0.0008596547630394663,-0.015977862566958212,-0.004372291139611212,0.03170669674789384,9.703364755130492,-0.22320465998394726
1560000084734224128,0.005504511492742059,-0.015977862566958212,-0.003314775602096226,0.03170669674789384,9.739832411871761,-0.2969380013636853
1560000084744247040,0.006565205463012425,-0.019167481651422014,-0.0022572601801462006,0.060959089819894646,9.746946719234984,-0.3409981469514975
1560000084754269952,0.003383122624902535,-0.015977862566958212,-0.005429806445996277,0.09234920944703864,9.749432022558153,-0.375355117950259
1560000084764292352,0.008686594330851949,-0.010661831689013357,-0.00014222933624614964,0.10446307139740546,9.761588435228937,-0.39993354277204196
1560000084774315264,0.007625899896932187,-0.01704106985794096,0.004087832467118913,0.12389515138551016,9.781089136400071,-0.42451452704755355
1560000084784338176,0.0023224281909827726,-0.005345800578694798,0.0030303169296039267,0.14808173560310545,9.805231151099788,-0.44896351590016387
1560000084794360832,0.0012617339888877088,-0.010661831689013357,0.0019728016232188617,0.1601952736768114,9.780918369558625,-0.4366746320541096
1560000084804383488,0.00020103955496794668,0.008475880958779825,0.0030303169296039267,0.1527804078931267,9.761504062324892,-0.4194322420328089
1560000084814406400,-0.0019203490810468793,0.006349468235803957,0.0009152860857038758,0.11643460542639905,9.749346239967997,-0.39485096703926725
1560000084824429056,-0.0019203490810468793,0.008475880958779825,-0.00014222933624614964,0.10926123966921075,9.72743118102942,-0.36040564228387456
1560000084834451712,-0.004041737717061705,0.007412674597291891,-0.001199744758196175,0.09946160046408277,9.705575698179628,-0.32353546670532213
1560000084844474624,-0.0029810433990542923,0.01272870640473156,-0.00014222933624614964,0.051006292002029684,9.693419321354112,-0.2866679190310416
1560000084854497536,-0.0008596547630394663,0.006349468235803957,-0.00014222933624614964,0.017127107026112677,9.695892875505049,-0.27198369204519146
1560000084864520192,0.00020103955496794668,0.014855118198212613,-0.00014222933624614964,-0.0070705737685035075,9.70805069835201,-0.27198369204519146
1560000084874542848,0.0023224281909827726,0.008475880958779825,-0.001199744758196175,-0.0070705737685035075,9.720208592933453,-0.27198369204519146
1560000084884565504,0.0012617339888877088,0.01379191183672468,0.0030303169296039267,-0.0070705737685035075,9.732366389310824,-0.2916994804991324
1560000084894588672,0.0012617339888877088,0.010602293681755692,0.0009152860857038758,-0.0070705737685035075,9.74452461741777,-0.34086615190758407
1560000084904611328,0.003383122624902535,0.007412674597291891,0.0009152860857038758,0.0026318135796469314,9.766419654452369,-0.38018940109179306
1560000084914633984,0.0023224281909827726,0.001033437125485398,-0.00014222933624614964,0.01231806054543405,9.783421704052895,-0.4145990484442334
1560000084924656896,0.00020103955496794668,0.006349468235803957,-0.003314775602096226,0.01231806054543405,9.771262797321839,-0.43918251587805335
1560000084934679552,0.0012617339888877088,0.009539087320267758,0.0019728016232188617,0.005044548673199393,9.766403457375873,-0.43424977041225654
1560000084944702464,0.0023224281909827726,0.00528626233906343,-0.001199744758196175,-0.0070705737685035075,9.766403457375873,-0.4096661568891224
1560000084954725120,-0.0019203490810468793,-0.001092975481303618,0.0009152860857038758,-0.0070705737685035075,9.766403457375873,-0.37279565037335444
1560000084964748032,-0.0029810433990542923,-0.003219387971905782,0.0009152860857038758,-0.011912978207440021,9.756684874216816,-0.3506608919895484
1560000084974770688,0.0012617339888877088,-0.008535419430784896,0.0009152860857038758,-0.024027779005155497,9.732370775612969,-0.3506608919895484
1560000084984793600,-0.0019203490810468793,-0.005345800578694798,0.0030303169296039267,-0.0167752678507279,9.717772993815432,-0.33101264627401433
1560000084994816256,0.003383122624902535,-0.010661831689013357,0.0019728016232188617,0.0001614708843361099,9.710453362335386,-0.30887672130809946
1560000085004839168,-0.0008596547630394663,-0.012788244411989225,0.0019728016232188617,0.03651105543248588,9.722612449814275,-0.29658479529060494
1560000085014861824,0.003383122624902535,-0.013851450773477159,0.0009152860857038758,0.036588938899610804,9.727490951408186,-0.29901118931470644
1560000085024884736,-0.0008596547630394663,-0.007472213069296962,0.0009152860857038758,0.012361284078619299,9.727490951408186,-0.3113003750648269
1560000085034907904,0.0012617339888877088,-0.014914657134965092,0.006202863542148884,0.024411822521655475,9.739626587081831,-0.2990534698298271
1560000085044930560,0.003383122624902535,-0.007472213069296962,0.0019728016232188617,0.0461677625919065,9.746946719234984,-0.31121353257086365
1560000085054952960,0.005504511492742059,-0.010661831689013357,0.0030303169296039267,0.0825145383697696,9.746946719234984,-0.36037743580485226
1560000085064975616,0.004443817058822297,-0.008535419430784896,0.0030303169296039267,0.1382511344273062,9.766366100160635,-0.4194090190741953
1560000085074998784,0.0023224281909827726,-0.0064090067078090285,0.0030303169296039267,0.17715303416657668,9.785860195516761,-0.46622599619563865
1560000085084998656,0.00020103955496794668,0.001033437125485398,-0.001199744758196175,0.12880233637891902,9.785860195516761,-0.4539633533433662
1560000085095021312,-0.0008596547630394663,0.001033437125485398,-0.00014222933624614964,0.09480218221610641,9.771350350399624,-0.4416731879223943
1560000085105044224,-0.0019203490810468793,0.006349468235803957,-0.00014222933624614964,0.07057272806570766,9.74703578991494,-0.4293830984623727
1560000085115066880,-0.004041737717061705,0.0020966432545996283,-0.00014222933624614964,0.07048396915281341,9.746946719234984,-0.38035778710490054
1560000085125089536,-0.0019203490810468793,0.007412674597291891,-0.0022572601801462006,0.05130164455051467,9.737322108058843,-0.3312008896314172
1560000085135112704,-0.0029810433990542923,0.007412674597291891,0.0009152860857038758,0.002847343866705321,9.71301046629684,-0.2820451785735649
1560000085145135104,-0.0029810433990542923,0.003159849616087562,-0.001199744758196175,0.012197606545758792,9.708034213267297,-0.262210147072854
1560000085155158016,0.0012617339888877088,0.0020966432545996283,-0.00014222933624614964,0.026986842584502915,9.708034213267297,-0.25470849091364794
1560000085165180928,0.0012617339888877088,-2.9769236002535893e-05,0.0019728016232188617,0.002757028300122529,9.708034213267297,-0.2669987630471554
1560000085175203584,0.0023224281909827726,0.00528626233906343,0.0009152860857038758,-0.0070705737685035075,9.715260968665843,-0.28659510805148175
1560000085185226752,0.0023224281909827726,0.004223055977575496,0.0030303169296039267,-0.0070705737685035075,9.727419803137963,-0.31117844854471605
1560000085195249408,0.004443817058822297,-2.9769236002535893e-05,0.0030303169296039267,0.004972435687794196,9.739575660012402,-0.3235396339942756
1560000085205272064,0.005504511492742059,-0.001092975481303618,-0.001199744758196175,0.002781513029951622,9.756516763555757,-0.3455034843538339
1560000085215294464,0.005504511492742059,-2.9769236002535893e-05,-0.00014222933624614964,-0.021445709300883867,9.780829083197524,-0.38237038347794644
1560000085225317632,0.0023224281909827726,-0.00959862579227283,0.005145348004633898,-0.007244043525436412,9.785860195516761,-0.3802528447955633
1560000085235340288,0.00020103955496794668,-0.00959862579227283,0.0030303169296039267,0.016983368275462873,9.785860195516761,-0.37269663037803025
1560000085245363200,-0.004041737717061705,-0.008535419430784896,-0.0022572601801462006,0.04121426420611294,9.785860195516761,-0.38498745056457895
1560000085255385600,-0.0019203490810468793,-0.007472213069296962,0.0009152860857038758,0.043922168600270636,9.764265474949061,-0.3754454951595028
1560000085265408768,-0.004041737717061705,-0.010661831689013357,0.0009152860857038758,0.031808413105874844,9.727797167217634,-0.3508672695735598
1560000085275431424,-0.0008596547630394663,-0.008535419430784896,0.0030303169296039267,0.04372065926033621,9.727490951408186,-0.2897215348860302
1560000085285454080,-0.0019203490810468793,-0.013851450773477159,0.005145348004633898,0.04161497133839068,9.722734120875115,-0.24750560819607034
1560000085295476992,-0.0019203490810468793,-0.007472213069296962,-0.001199744758196175,0.017387316517399165,9.7105777440496,-0.2352164320220308
1560000085305499904,-0.0008596547630394663,-0.00959862579227283,-0.001199744758196175,0.03148045324130232,9.708034213267297,-0.2326451150633293
1560000085315522560,0.0023224281909827726,-0.012788244411989225,0.0019728016232188617,0.053403064797994795,9.710350050946134,-0.2396685263214114
1560000085325544960,0.003383122624902535,-0.003219387971905782,0.0030303169296039267,0.06551750428490033,9.72250704199796,-0.2765379272289108
1560000085335568128,0.0023224281909827726,-0.005345800578694798,-0.00014222933624614964,0.07763283889489789,9.741838553456946,-0.3206624196187895
1560000085345590784,0.004443817058822297,-0.001092975481303618,-0.00014222933624614964,0.08974781858601082,9.76615301346363,-0.3698238384628544
1560000085355613696,0.0012617339888877088,-0.001092975481303618,0.0019728016232188617,0.1018636200008374,9.778436591232783,-0.38249479800217284
1560000085365636352,-0.0008596547630394663,-0.007472213069296962,0.0009152860857038758,0.09510880368544603,9.785860195516761,-0.38999949962516567
1560000085375659008,0.003383122624902535,0.003159849616087562,0.0030303169296039267,0.05876548640471897,9.785860195516761,-0.38999949962516567
1560000085385682176,-0.0019203490810468793,-0.003219387971905782,-0.003314775602096226,0.06065377296229176,9.776268181802868,-0.3803027003168049
1560000085395704832,0.00020103955496794668,-0.0021561817266047,-0.001199744758196175,0.06363120835484218,9.761819017764585,-0.3610609303920808
1560000085405727744,-0.004041737717061705,0.006349468235803957,0.0030303169296039267,0.027289186002639264,9.737506509019926,-0.31190345680567944
1560000085415750144,-0.0008596547630394663,-0.001092975481303618,0.0019728016232188617,0.019441934070974054,9.72034205551433,-0.2699720134856184
1560000085425772544,-0.0008596547630394663,0.00528626233906343,0.0009152860857038758,0.031556265438009864,9.708185172962143,-0.23310294163294876
1560000085435795456,-0.0029810433990542923,-0.0064090067078090285,-0.001199744758196175,0.03170669674789384,9.708034213267297,-0.2326451150633293
1560000085445818624,0.0023224281909827726,0.001033437125485398,0.0009152860857038758,0.03170669674789384,9.712740150051198,-0.24215980632888365
1560000085455841280,0.0023224281909827726,-2.9769236002535893e-05,0.0019728016232188617,0.03170669674789384,9.724896237707684,-0.2667375740209922
1560000085465864192,0.004443817058822297,-0.0021561817266047,0.0009152860857038758,0.03170669674789384,9.737052706122903,-0.291317090777067
1560000085475887360,0.0012617339888877088,-0.0021561817266047,-0.0022572601801462006,0.027196773563178848,9.75147248359498,-0.31360990216058066
1560000085485909760,0.0012617339888877088,-0.001092975481303618,-0.001199744758196175,0.002968832232078014,9.775785525946567,-0.32589922426181683
1560000085495932416,0.003383122624902535,-0.001092975481303618,0.004087832467118913,0.00711853791002663,9.771621244362928,-0.3453861060700121
1560000085505955328,0.00020103955496794668,-0.003219387971905782,0.0019728016232188617,0.031347631937149116,9.747307045266457,-0.36996594838389446
1560000085515978240,0.00020103955496794668,-0.003219387971905782,-0.003314775602096226,0.03170669674789384,9.758923944953704,-0.35822212428927885
1560000085526000896,-0.0019203490810468793,-0.007472213069296962,0.0019728016232188617,0.04102910416613735,9.761725881344082,-0.3459322132442233
1560000085536023296,0.00020103955496794668,-0.00959862579227283,0.0019728016232188617,0.06525848716605714,9.749568637394017,-0.3336421508961813
1560000085546046208,0.0012617339888877088,-0.00959862579227283,0.0009152860857038758,0.07048396915281341,9.737411574055166,-0.3117120001250079
1560000085556069120,0.00020103955496794668,-0.003219387971905782,0.0019728016232188617,0.06825561882058552,9.727490951408186,-0.28939238819367136
1560000085566092032,-0.0029810433990542923,-0.008535419430784896,-0.003314775602096226,0.05614161136985121,9.727490951408186,-0.277103019797071
1560000085576114944,0.00020103955496794668,-0.007472213069296962,-0.001199744758196175,0.04402055900718848,9.727490951408186,-0.27916087958315644
1560000085586121984,0.0023224281909827726,-0.001092975481303618,-0.00014222933624614964,0.0319135142517569,9.727490951408186,-0.2914431844932965
1560000085596144384,0.004443817058822297,-0.0021561817266047,-0.001199744758196175,0.05552281363436733,9.739440240565004,-0.31581386264060796
1560000085606167296,0.004443817058822297,0.003159849616087562,0.004087832467118913,0.06585003669222671,9.746946719234984,-0.33569260089314623
1560000085616190208,0.0012617339888877088,-0.0064090067078090285,0.0009152860857038758,0.05373674937033859,9.746946719234984,-0.34798123873639997
1560000085626212864,-0.0008596547630394663,-0.001092975481303618,0.0019728016232188617,0.060567338012567425,9.756451994399272,-0.36027002016975174
1560000085636236032,0.0012617339888877088,-0.004282594217206864,-0.00014222933624614964,0.06828648472567574,9.764198254357927,-0.36810091444407517
1560000085646258688,-0.0019203490810468793,-0.001092975481303618,0.0030303169296039267,0.05617294547206788,9.752042166701441,-0.35581201144631464
1560000085656281088,0.0012617339888877088,-0.0021561817266047,-0.00014222933624614964,0.04406021716020266,9.746946719234984,-0.33638698695447355
1560000085666304000,-0.0029810433990542923,-0.004282594217206864,-0.001199744758196175,0.03194700173515571,9.746946719234984,-0.31180986671878597
1560000085676327168,-0.0019203490810468793,-0.001092975481303618,-0.003314775602096226,0.03170669674789384,9.735031283173763,-0.32336850374069553
1560000085686349568,0.003383122624902535,0.004223055977575496,0.0009152860857038758,0.027107629716217153,9.727490951408186,-0.32166030663803696
1560000085696372480,0.005504511492742059,0.003159849616087562,0.0019728016232188617,0.014994342394329046,9.727490951408186,-0.2970830405271835
1560000085706394880,-0.0029810433990542923,-0.004282594217206864,0.0009152860857038758,0.031192321413539087,9.727490951408186,-0.2916529958630001
1560000085716418048,0.0012617339888877088,-0.010661831689013357,0.0019728016232188617,0.04676939316361215,9.727490951408186,-0.2916529958630001
1560000085726440704,0.004443817058822297,-0.004282594217206864,-0.00014222933624614964,0.022541594501869825,9.727490951408186,-0.2916529958630001
1560000085736463616,0.0023224281909827726,-2.9769236002535893e-05,-0.0022572601801462006,0.026323942400417043,9.734518139466559,-0.3129659343551539
1560000085746486528,0.006565205463012425,-0.0064090067078090285,0.0030303169296039267,0.050554118009537616,9.746675174807542,-0.34983731794658
1560000085756509184,-0.004041737717061705,-0.0064090067078090285,0.0030303169296039267,0.05109533295035362,9.746946719234984,-0.3506608919895484
1560000085766531840,0.0023224281909827726,-0.004282594217206864,0.0019728016232188617,0.04652940248334349,9.751528687380574,-0.3413968429210029
1560000085776554496,-0.0019203490810468793,-0.005345800578694798,-0.001199744758196175,0.03441640330549596,9.763684233064303,-0.31682016144028124
1560000085786577408,-0.0019203490810468793,-0.007472213069296962,0.0019728016232188617,0.03170669674789384,9.756966706603391,-0.27316292387283037
1560000085796600064,0.00020103955496794668,-2.9769236002535893e-05,0.0009152860857038758,0.04660764127307222,9.74481064233684,-0.23912367566842152
1560000085806622976,-0.0008596547630394663,0.0020966432545996283,-0.001199744758196175,0.13141955663916674,9.732652703436083,-0.275997790111621
1560000085816646144,-0.0008596547630394663,-0.0021561817266047,-0.0022572601801462006,0.1465120077067172,9.734486803535386,-0.2916529958630001
1560000085826668544,0.003383122624902535,0.003159849616087562,0.0019728016232188617,0.11016901478558883,9.74664307981974,-0.2916529958630001
1560000085836691200,0.0012617339888877088,-0.0021561817266047,-0.005429806445996277,0.0265856479078012,9.746946719234984,-0.25570770236633056
1560000085846714112,0.003383122624902535,-2.9769236002535893e-05,-0.00014222933624614964,-0.049138597512728525,9.742395136544019,-0.21884050164937097
1560000085856737024,0.004443817058822297,-0.003219387971905782,0.0019728016232188617,-0.10970916944985679,9.730239076806505,-0.1819720722025246
1560000085866759680,0.00020103955496794668,-0.015977862566958212,-0.00014222933624614964,-0.08590168763560617,9.727490951408186,-0.1736372112733422
1560000085876782336,0.0023224281909827726,-0.0064090067078090285,0.0030303169296039267,-0.03954606410389441,9.727490951408186,-0.15658919990155312
1560000085886804992,0.004443817058822297,-0.013851450773477159,-0.001199744758196175,-0.003201666430846517,9.727490951408186,-0.05826785238512164
1560000085896827904,0.0012617339888877088,-0.010661831689013357,0.0019728016232188617,0.13726941890699298,9.734456728774257,0.07526613275813283
1560000085906850816,0.004443817058822297,-0.01172503805050129,0.0030303169296039267,0.35533775808673296,9.746613583419403,0.23503974232074243
1560000085916873728,0.003383122624902535,-0.004282594217206864,0.0019728016232188617,0.3495321725402938,9.723301854898091,0.31112936453248125
1560000085926896640,0.007625899896932187,0.009539087320267758,0.0009152860857038758,0.29686357837435334,9.721599861981293,0.3345770311571665
1560000085936919040,0.004443817058822297,0.01379191183672468,-0.001199744758196175,0.1757328605912354,9.758066109262929,0.27313494842598685
1560000085946941952,0.004443817058822297,0.015918324559700547,-0.003314775602096226,0.0732870343113059,9.785157435413723,0.21169136602109545
1560000085956964608,0.006565205463012425,0.01272870640473156,-0.001199744758196175,-0.013276112901809441,9.803242021757002,0.15444548564816046
1560000085966987520,0.005504511492742059,0.018044737282676415,0.0019728016232188617,-0.04962061905452349,9.79108402672947,0.11757486908241244
1560000085977010176,0.0023224281909827726,0.009539087320267758,-0.00014222933624614964,-0.09287154747034139,9.785860195516761,0.10173295787815206
1560000085987033088,-0.0008596547630394663,0.011665499113748812,0.0019728016232188617,-0.14132829745563974,9.785860195516761,0.10173295787815206
1560000085997055744,-0.0019203490810468793,0.001033437125485398,0.0019728016232188617,-0.14279102529719978,9.774070537699426,0.11365141819960861
1560000086007078656,-0.006163126353076531,0.003159849616087562,0.0030303169296039267,-0.1248945319896649,9.757424004213744,0.14863559234244084
1560000086017101312,-0.004041737717061705,-0.0021561817266047,0.0009152860857038758,-0.07643821447954305,9.733111351113813,0.22237221180120248
1560000086027124224,-0.0019203490810468793,-0.007472213069296962,0.0030303169296039267,-0.027980746104896426,9.718144302476054,0.2866618385701147
1560000086037147136,0.0023224281909827726,-0.01172503805050129,0.006202863542148884,0.01231806054543405,9.708034213267297,0.3377645423843454
1560000086047169792,-0.0008596547630394663,-0.01172503805050129,0.005145348004633898,0.01231806054543405,9.708034213267297,0.3377645423843454
1560000086057192448,0.00020103955496794668,-0.012788244411989225,0.0009152860857038758,0.03984303031808001,9.714939625845185,0.33078369332527585
1560000086067215360,0.0023224281909827726,-0.013851450773477159,0.0009152860857038758,0.08830597496112712,9.727097918125388,0.318492580771635
1560000086077238016,0.0023224281909827726,-0.013851450773477159,0.004087832467118913,0.06642385828506875,9.739255919662357,0.24673070731221708
1560000086087258368,0.006565205463012425,-0.012788244411989225,0.0019728016232188617,0.055544182225255055,9.751411194944682,0.1820264639839213
1560000086097281280,0.0012617339888877088,-0.01810427528993408,-0.0022572601801462006,0.06766035057635517,9.763569920933277,0.1328602312502309
1560000086107303936,0.00020103955496794668,-0.019167481651422014,0.0030303169296039267,0.04261215624914362,9.794372704140402,0.11197716770050906
1560000086117326848,0.0012617339888877088,-0.014914657134965092,0.0030303169296039267,0.010301617216342504,9.820725749966034,0.10377859120276348
1560000086127349504,-0.0019203490810468793,-0.020230688012909948,0.0030303169296039267,-0.001813181221323703,9.796411651362186,0.11606876323363596
1560000086137371904,-0.0019203490810468793,-0.02129389437439788,0.0030303169296039267,0.04093424886939097,9.758332859493159,0.142273576900474
1560000086147395072,-0.0019203490810468793,-0.013851450773477159,0.0009152860857038758,0.1257507044336964,9.709696682035302,0.17914968395257705
1560000086157417728,-0.007223820786996293,-0.01704106985794096,-0.0022572601801462006,0.0818520465374198,9.719774765028584,0.22788540727409745
1560000086167440640,-0.007223820786996293,-0.01810427528993408,0.0030303169296039267,0.08207017996599994,9.705288349286207,0.2815324900927193
1560000086177463296,-0.0008596547630394663,-0.020230688012909948,0.0030303169296039267,0.16687126227428647,9.644503394027089,0.3429815139505361
1560000086187486464,0.00020103955496794668,-0.014914657134965092,0.0019728016232188617,0.13122018317452558,9.6674011845994,0.3668338908174413
1560000086197508864,0.0012617339888877088,-0.01172503805050129,-0.00014222933624614964,0.06849230969808527,9.708034213267297,0.36498017961976514
1560000086207531776,0.005504511492742059,-0.015977862566958212,0.0009152860857038758,0.05637722189352498,9.708034213267297,0.291237412436913
1560000086217554432,0.009747288764771711,-0.01704106985794096,0.004087832467118913,0.05792915780816809,9.72860735658464,0.18282710400408492
1560000086227577344,0.009747288764771711,-0.007472213069296962,0.004087832467118913,0.07004615473024824,9.76508542259312,0.04761074890060743
1560000086237600000,0.007625899896932187,-0.014914657134965092,0.0030303169296039267,0.07048396915281341,9.81327360334461,-0.063884857148303
1560000086247622656,0.007625899896932187,-2.9769236002535893e-05,0.004087832467118913,0.06167915304541338,9.853066152669937,-0.16556156138364372
1560000086257645568,0.0023224281909827726,-0.00959862579227283,0.0009152860857038758,0.03744861728088147,9.877381797383727,-0.2515960597756132
1560000086267668480,-0.0008596547630394663,-0.0064090067078090285,-0.00014222933624614964,0.040952241189029334,9.892421905329032,-0.2813630738993249
1560000086277691392,-0.009345209654835818,-0.001092975481303618,0.0019728016232188617,0.06096431806422088,9.894677605751966,-0.2736316758828494
1560000086287714048,-0.009345209654835818,-0.005345800578694798,0.0030303169296039267,0.12154731984820918,9.846040360376298,-0.16300371891357776
1560000086297736960,-0.012527292492945707,-0.0064090067078090285,0.004087832467118913,0.1412204706024649,9.78372144222005,-0.0454619475312337
1560000086307759360,-0.01358798692686547,-0.001092975481303618,-0.00014222933624614964,0.1291052400430364,9.710775938322788,0.07744411464876785
1560000086317782528,-0.012527292492945707,-0.003219387971905782,-0.00014222933624614964,0.10532979628477665,9.6495298155891,0.20035190912229597
1560000086327805184,-0.010405903625106183,-0.001092975481303618,-0.001199744758196175,0.08548617821400117,9.593144155595327,0.28320654361577324
1560000086337827840,-0.004041737717061705,-0.0021561817266047,-0.001199744758196175,0.07337155866437939,9.544515468607312,0.2954965425486396
1560000086347850752,-0.0008596547630394663,0.001033437125485398,-0.00014222933624614964,0.1166198727184438,9.57922203472746,0.2422614479673768
1560000086357872896,0.008686594330851949,-0.0021561817266047,0.0009152860857038758,0.15961774691276714,9.641962408165904,0.15862344591976646
1560000086367896064,0.012929372066530997,0.00528626233906343,0.0009152860857038758,0.11115912640477557,9.714905050130373,0.023433185737739948
1560000086377918976,0.010807983198691473,0.011665499113748812,0.0009152860857038758,0.09666544268004744,9.740130361582551,-0.09108147172175221
1560000086387941888,0.012929372066530997,0.010602293681755692,0.0009152860857038758,0.10877998910360864,9.727973868312969,-0.18940077154656737
1560000086397964800,0.008686594330851949,0.018044737282676415,-0.001199744758196175,0.15579927630825285,9.809217982110347,-0.2523211251350602
1560000086407987456,0.007625899896932187,0.01698153092118848,0.0030303169296039267,0.16937126568025465,9.87244004853176,-0.30492578179722907
1560000086418010112,0.003383122624902535,0.022297560869638522,0.0019728016232188617,0.12091206012934347,9.89675475342687,-0.341796288312997
1560000086428032512,0.00020103955496794668,0.020171150005652283,0.0030303169296039267,0.16447380565325975,9.856428999985859,-0.35999620263506366
1560000086438055680,-0.0019203490810468793,0.026550388174579886,-0.00014222933624614964,0.22559304932988056,9.803382140212166,-0.3546756976413611
1560000086448078592,-0.005102432150981467,0.03292962634350749,-0.00014222933624614964,0.22559304932988056,9.791223530815964,-0.2563490738961184
1560000086458101248,-0.008284515220916056,0.033992830846005795,0.0019728016232188617,0.17819207546763458,9.772269489370332,-0.14427989910011674
1560000086468124160,-0.010405903625106183,0.044624894460885134,0.0009152860857038758,0.09337512049211066,9.747950952906143,-0.02135884995917295
1560000086478146816,-0.007223820786996293,0.04781451168635931,-0.00014222933624614964,0.22924670321624765,9.665360762270126,0.0779782407661127
1560000086488169728,-0.007223820786996293,0.044624894460885134,0.0019728016232188617,0.27478499729972167,9.606395004590347,0.1498792805804001
1560000086498192384,0.00020103955496794668,0.060572984306235256,0.0009152860857038758,0.14152020771701554,9.59423686513659,0.17445999957942437
1560000086508215296,0.003383122624902535,0.05632016257826278,0.0030303169296039267,0.16435294995157337,9.646579006090446,0.12452096538325716
1560000086518237952,0.005504511492742059,0.06482580975218699,-0.00014222933624614964,0.2103315810207907,9.711862886456354,0.04497667912988505
1560000086528260352,0.008686594330851949,0.07439466886456803,-0.0022572601801462006,0.11342125725807002,9.736174961206862,-0.06562562976111336
1560000086538283264,0.009747288764771711,0.06801543441361968,0.0030303169296039267,0.08397938380969358,9.760489536745597,-0.18992854585924296
1560000086548306176,0.013990065573151966,0.0775842860900422,-0.00014222933624614964,0.10820991839415525,9.784805181459387,-0.3251256193784974
1560000086558329088,0.009747288764771711,0.07545787708504559,-0.001199744758196175,0.14403109383047183,9.832382839847394,-0.3897802025518975
1560000086568351744,0.005504511492742059,0.07864749431051976,-0.001199744758196175,0.14578370928113904,9.854999147527119,-0.42494673086684825
1560000086578374912,-0.0008596547630394663,0.07864749431051976,-0.004372291139611212,0.08503527184120795,9.83061381281912,-0.4126211750571842
1560000086588352000,-0.004041737717061705,0.07439466886456803,-0.001199744758196175,0.07048396915281341,9.824772701484449,-0.32605381013586915
1560000086598375168,-0.007223820786996293,0.08396352054099054,-0.0022572601801462006,0.06105741645314273,9.811529361774513,-0.21734430201586002
1560000086608397824,-0.007223820786996293,0.07545787708504559,-0.0022572601801462006,0.00047441348895436997,9.726416456297327,-0.11900833215047045
1560000086618420480,-0.006163126353076531,0.0829003197564715,-0.001199744758196175,0.01392004127941264,9.688577475126408,-0.04798154393114745
1560000086628443136,-0.006163126353076531,0.07545787708504559,-0.003314775602096226,0.08662137421470494,9.688577475126408,0.0011876064190442237
1560000086638466048,-0.0019203490810468793,0.07545787708504559,-0.001199744758196175,0.04357941939525164,9.688577475126408,0.062090601983556856
1560000086648488960,-0.0029810433990542923,0.0829003197564715,-0.001199744758196175,-0.0005821420357701237,9.675631960593295,0.10609527281819792
1560000086658511616,0.0012617339888877088,0.07333146064409046,0.0030303169296039267,-0.03692924097066698,9.639157192500596,0.11838635830409923
1560000086668534528,0.004443817058822297,0.07652107786956464,-0.001199744758196175,-0.0641362658455043,9.63938358659063,0.09357253603300641
1560000086678557184,0.008686594330851949,0.06907864263409724,0.006202863542148884,-0.09398868802453356,9.664698317161896,0.0490956216916755
1560000086688579840,0.007625899896932187,0.06482580975218699,0.0019728016232188617,-0.1545743823512673,9.761975933511163,-0.03695218423910822
1560000086698602752,0.007625899896932187,0.06588901797266455,0.005145348004633898,-0.10094933900023041,9.791833879596425,-0.11618370234985222
1560000086708625920,0.010807983198691473,0.060572984306235256,0.0030303169296039267,0.0444546193437767,9.767514158255388,-0.18993808645979823
1560000086718648320,0.010807983198691473,0.06376260153170943,0.0030303169296039267,0.07422448273240184,9.766403457375873,-0.27543035621285783
1560000086728670976,0.009747288764771711,0.06163619252671282,0.0019728016232188617,0.06840780964465161,9.787943647885614,-0.3397017987616875
1560000086738693888,0.006565205463012425,0.05525695807576447,0.0019728016232188617,0.007830570998114225,9.848733663248064,-0.36428346786687094
1560000086748716800,0.003383122624902535,0.05419374985528691,-0.001199744758196175,0.056882612283862585,9.863687148080317,-0.41667229341474515
1560000086758739456,0.00020103955496794668,0.044624894460885134,0.0030303169296039267,0.10814790858042424,9.859946331031598,-0.46300427100404956
1560000086768762368,-0.007223820786996293,0.04781451168635931,-0.001199744758196175,-0.02512598694273785,9.835628995650266,-0.42613071425685517
1560000086778785024,-0.010405903625106183,0.03186641812302993,-0.00014222933624614964,-0.06450410963233084,9.818042808991313,-0.32801966603711685
1560000086788807936,-0.017830763735245725,0.03186641812302993,-0.004372291139611212,-0.0281539776413164,9.80588475353283,-0.18051440419447673
1560000086798830848,-0.017830763735245725,0.030803209902552364,-0.001199744758196175,-0.07266910707146118,9.724166543596496,-0.009561376746876155
1560000086808853760,-0.018891458169165487,0.026550388174579886,-0.004372291139611212,-0.12113819323129568,9.65193614973705,0.11476220168038404
1560000086818876160,-0.012527292492945707,0.015918324559700547,-0.001199744758196175,-0.1696005562147059,9.603303559581946,0.15163511952839973
1560000086828899072,-0.007223820786996293,0.015918324559700547,-0.001199744758196175,-0.16332064219380368,9.591293784421964,0.1607408540047004
1560000086838921728,0.0012617339888877088,0.020171150005652283,-0.00014222933624614964,-0.13353851098074562,9.595007789880155,0.15323169322161703
1560000086848944384,0.004443817058822297,0.008475880958779825,0.005145348004633898,-0.07296271331136389,9.619323217609708,0.10406955321238823
1560000086858967296,0.007625899896932187,0.007412674597291891,0.005145348004633898,0.027764993857238976,9.643638425183758,0.007385226367045181
1560000086868990208,0.012929372066530997,0.007412674597291891,0.0019728016232188617,0.16102699463447617,9.667952985668443,-0.12780581754814582
1560000086879012864,0.010807983198691473,0.006349468235803957,0.004087832467118913,0.10976582523564006,9.77327510222351,-0.2512906202463162
1560000086889036032,0.015050760007071728,0.01379191183672468,0.004087832467118913,0.10029417383117656,9.839956637954362,-0.36123330839810586
1560000086899058432,0.008686594330851949,0.011665499113748812,-0.00014222933624614964,0.18509701433089584,9.827798787718443,-0.4472637065273438
1560000086909081088,0.008686594330851949,0.008475880958779825,-0.00014222933624614964,0.15160823165524415,9.833904483236049,-0.4409834156943992
1560000086919104000,0.0012617339888877088,0.006349468235803957,0.0019728016232188617,0.08439474934087984,9.83323630771799,-0.402259252475212
1560000086929126656,0.0012617339888877088,0.01272870640473156,0.0009152860857038758,0.04805035048780732,9.760292799323917,-0.35309857392857147
1560000086939149568,-0.0008596547630394663,0.010602293681755692,-0.00014222933624614964,-0.001631300180155816,9.740872656458613,-0.2836427707532262
1560000086949172224,0.003383122624902535,0.01698153092118848,0.004087832467118913,-0.06220889753746514,9.765188200738269,-0.19760647999725156
1560000086959195392,0.0023224281909827726,0.015918324559700547,-0.00014222933624614964,0.06138177539409831,9.754852275406748,-0.16995175602293158
1560000086969217792,0.003383122624902535,0.022297560869638522,0.0009152860857038758,0.18617285366956518,9.704426829287174,-0.1883557822804373
1560000086979240704,0.003383122624902535,0.015918324559700547,-0.00014222933624614964,0.295207036239822,9.582853432462308,-0.28667800962740575
1560000086989263872,0.005504511492742059,0.020171150005652283,-0.001199744758196175,0.37701118107505077,9.625269192321458,-0.3297434616800986
1560000086999286528,0.009747288764771711,0.01698153092118848,-0.006487321983511263,0.43886804944546043,9.71347200207105,-0.33600146091999245
1560000087009308928,0.010807983198691473,0.010602293681755692,-0.006487321983511263,0.43886804944546043,9.749946922757719,-0.23767075980767027
1560000087019331840,0.009747288764771711,0.011665499113748812,-0.01177489920882635,0.2526700486057881,9.659631541424487,-0.1258446056656892
1560000087029354752,0.013990065573151966,0.015918324559700547,-0.009659868133796379,-0.08658266050438324,9.46509313832648,-0.002929038198360323
1560000087039377664,0.018232843308831015,0.01698153092118848,-0.010717383671311365,-0.0810305957861943,9.605012273098668,-0.07821901607815464
1560000087049400064,0.027779093214108874,0.01379191183672468,-0.010717383671311365,-0.12848679815575031,9.708034213267297,-0.21985314839493653
1560000087059423232,0.030961172806672987,0.014855118198212613,-0.010717383671311365,-0.31021474749822586,9.708034213267297,-0.46566456025501896
1560000087069445888,0.030961172806672987,0.004223055977575496,-0.010717383671311365,-0.2744299564346395,9.799059113051777,-0.6749162039011326
1560000087079468800,0.02883978579343105,0.004223055977575496,-0.005429806445996277,-0.172510178295167,9.908054493830194,-0.8570960745159388
1560000087089469440,0.022475619189912477,0.007412674597291891,-0.004372291139611212,-0.11206606149400296,9.944447750067702,-0.9552066496706679
1560000087099492864,0.012929372066530997,-2.9769236002535893e-05,0.0019728016232188617,-0.0647419618112317,9.934366195059255,-1.0064713772300757
1560000087109515520,0.007625899896932187,0.003159849616087562,-0.003314775602096226,-0.02839755705803599,9.885737391560296,-1.0187615396840988
1560000087119537920,0.00020103955496794668,0.004223055977575496,-0.005429806445996277,0.08823497928187178,9.906162722809743,-0.90306256860093
1560000087129560832,-0.009345209654835818,-0.005345800578694798,-0.00014222933624614964,0.11707346080346523,9.875737138722945,-0.7375864121238993
1560000087139583744,-0.004041737717061705,-0.005345800578694798,-0.004372291139611212,-0.02829592128530664,9.742015025297013,-0.4917969080150801
1560000087149606656,-0.009345209654835818,-0.007472213069296962,-0.005429806445996277,-0.06523648048736064,9.635489645592916,-0.28266296937623325
1560000087159629312,-0.008284515220916056,-0.0064090067078090285,-0.003314775602096226,-0.08286513409011455,9.547074106459375,-0.11284093322836099
1560000087169651456,-0.0019203490810468793,-0.01172503805050129,-0.004372291139611212,-0.2040289802060994,9.510597278143864,-0.1005491570906366
1560000087179674880,0.005504511492742059,-0.024483513458861683,-0.001199744758196175,-0.21948105053865632,9.520531753994968,-0.1418782603624638
1560000087189697792,0.013990065573151966,-0.015977862566958212,0.0019728016232188617,-0.14679376255728843,9.569160152187909,-0.22790765578947567
1560000087199720448,0.02035423217667054,-0.014914657134965092,0.0009152860857038758,-0.08554938804753748,9.686722266143759,-0.3720136795139469
1560000087209743104,0.019293537742750777,-0.022357100735885815,0.0030303169296039267,-0.07924904099052124,9.778972691703645,-0.5533884002396372
1560000087219766016,0.0214149266105903,-0.01704106985794096,-0.00014222933624614964,-0.17617406542042324,9.815446636751293,-0.7992085919598528
1560000087229788416,0.015050760007071728,-0.02129389437439788,0.0030303169296039267,-0.06569472080995023,9.90621554470065,-0.9809868240143735
1560000087239811072,0.011868676705312442,-0.01172503805050129,0.007260378617404029,0.07766403845250011,9.998134020746326,-1.1195328377239933
1560000087249834240,0.0023224281909827726,-0.00959862579227283,0.006202863542148884,-0.0071423317709929796,9.98597566429859,-1.131823402211556
1560000087259857152,-0.010405903625106183,-0.01704106985794096,0.008317894154919014,0.026601799736630155,9.94737960676972,-1.0372076963528412
1560000087269879808,-0.016770070228624756,-0.015977862566958212,0.0030303169296039267,0.15987845888098592,9.886587125614843,-0.8528359614973797
1560000087279902464,-0.01995215260308525,-0.00959862579227283,0.007260378617404029,0.1902857610318849,9.699633809939732,-0.5293350161764844
1560000087289925376,-0.01995215260308525,-0.005345800578694798,0.006202863542148884,0.24776858222452577,9.555153954018108,-0.2312072235568594
1560000087299948288,-0.014648681360785232,-0.004282594217206864,0.005145348004633898,0.36892485096085,9.506521218844279,0.002321946126589758
1560000087309971200,-0.007223820786996293,-0.004282594217206864,0.0009152860857038758,0.37309487386171847,9.45789009441603,0.035007678144823764
1560000087319993856,0.0023224281909827726,0.0020966432545996283,0.0019728016232188617,0.3315768623176581,9.445606316296692,-0.02810697553094791
1560000087330016512,0.013990065573151966,0.001033437125485398,-0.003314775602096226,0.25889172554006046,9.652269652769707,-0.24931882736955774
1560000087340038912,0.017172148874911253,0.00528626233906343,-0.004372291139611212,0.23215737176024273,9.746946719234984,-0.49716644740545385
1560000087350061824,0.018232843308831015,0.00528626233906343,-0.008602353058541234,0.24427246310496115,9.746946719234984,-0.767556606512015
1560000087360084992,0.017172148874911253,0.01698153092118848,-0.006487321983511263,0.062472474901400094,9.895756320350081,-0.9222488139347603
1560000087370107648,0.009747288764771711,0.01698153092118848,-0.003314775602096226,-0.032161884592961,10.008181800691753,-1.040387866868208
1560000087380130560,0.004443817058822297,0.01379191183672468,-0.005429806445996277,0.06477898808393129,10.032501538417367,-1.1018529696223958
1560000087390153472,-0.004041737717061705,0.022297560869638522,-0.0022572601801462006,0.08089343360028947,9.930669190210677,-1.0175628472035902
1560000087400176128,-0.01358798692686547,0.022297560869638522,0.0030303169296039267,0.05172581118302507,9.800183987982201,-0.8564219421394393
1560000087410198784,-0.016770070228624756,0.02974000540005406,-0.004372291139611212,-0.08152113791024329,9.763715660782431,-0.5369155766327415
1560000087420221440,-0.014648681360785232,0.03611924356898166,0.0009152860857038758,-0.03806293483975788,9.635282930753572,-0.24391386458327116
1560000087430244352,-0.011466598059025945,0.042498481737909266,-0.00014222933624614964,0.1558101637000457,9.4285704377345,0.026520501153934506
1560000087440267264,-0.0008596547630394663,0.046751303465881744,0.004087832467118913,0.20159813365242307,9.473335803231812,0.07739070490032114
1560000087450289408,0.005504511492742059,0.049940924409335175,0.0009152860857038758,0.22559304932988056,9.558908873007233,-0.011023239675701096
1560000087460312832,0.010807983198691473,0.046751303465881744,0.0009152860857038758,0.22559304932988056,9.69264272382719,-0.3428666629421723
1560000087470335488,0.018232843308831015,0.05632016257826278,0.0030303169296039267,0.25246898392196493,9.799411395177314,-0.6747228920210029
1560000087480358144,0.017172148874911253,0.05950977980373695,0.0009152860857038758,0.27364330032446477,9.894986857719688,-0.9723815795001777
1560000087490381056,0.010807983198691473,0.07014184341861629,-0.003314775602096226,0.20095061489269012,9.980092272903406,-1.0584173591154666
1560000087500404224,-0.0019203490810468793,0.06482580975218699,-0.0022572601801462006,0.19353917063826165,9.980034796793126,-0.972266669125545
1560000087510426624,-0.008284515220916056,0.06588901797266455,-0.0022572601801462006,0.2419950556603512,9.907096275988177,-0.7387694342877225
1560000087520449280,-0.01358798692686547,0.07333146064409046,-0.004372291139611212,0.08582415465092258,9.720067965514355,-0.41298764117529013
1560000087530472448,-0.012527292492945707,0.07652107786956464,-0.007544837521026249,-0.010074773666333157,9.570741504431078,-0.130975461636681
1560000087540495104,-0.009345209654835818,0.06588901797266455,-0.003314775602096226,0.038395952073549955,9.50994088893095,0.053420914363555616
1560000087550518016,-0.0008596547630394663,0.08715314520242323,0.0009152860857038758,-0.02937124925349334,9.547843879205903,0.02917172627660808
1560000087560540672,0.005504511492742059,0.0850267287614681,0.0009152860857038758,-0.11175101209023125,9.624113951655461,-0.09445867393310854
1560000087570563328,0.009747288764771711,0.08821634598694228,0.0030303169296039267,-0.02705442755859601,9.721248837031796,-0.3767758727830334
1560000087580585984,0.012929372066530997,0.09565878865836819,0.007260378617404029,0.038255279605006506,9.837981020227371,-0.6593131740848154
1560000087590629632,0.012929372066530997,0.10097482232479749,0.007260378617404029,0.08682530494744735,9.972017133877895,-0.9426335237395652
1560000087600652800,0.005504511492742059,0.09778520509932331,0.006202863542148884,0.12394028136810029,10.01461394531088,-0.9834496816605458
1560000087610675456,-0.005102432150981467,0.10522765520670774,0.005145348004633898,0.16845958670373007,9.99371265361405,-0.9293110082260229
1560000087620697856,-0.011466598059025945,0.10310123876575261,0.0030303169296039267,0.22904114733919123,9.859965078042991,-0.7203520809596674
1560000087630720512,-0.018891458169165487,0.10416444698623017,0.004087832467118913,0.25391047379569087,9.753092458928585,-0.4208028871649227
1560000087640743680,-0.017830763735245725,0.10416444698623017,0.0019728016232188617,0.2560834820059964,9.652488904205287,-0.11412227723835314
1560000087650766336,-0.012527292492945707,0.11585971510360782,0.0019728016232188617,0.19549867420466865,9.530894297872175,0.03338605187647303
1560000087660789248,-0.004041737717061705,0.11160688965765608,0.0019728016232188617,0.13491774463703,9.507177917102918,0.07534896134070546
1560000087670812160,0.00020103955496794668,0.10310123876575261,-0.00014222933624614964,0.0743414075858407,9.567967028887393,0.026186387410573025
1560000087680834560,0.005504511492742059,0.1084172649962234,-0.001199744758196175,-0.04293794778946024,9.651511668201293,-0.14953988341969257
1560000087690857216,0.008686594330851949,0.09991162154027844,-0.00014222933624614964,-0.1071296612552066,9.736611301701052,-0.35039803669628183
1560000087700880128,0.007625899896932187,0.09884841331980088,-0.0022572601801462006,-0.058664272132189485,9.821723042449662,-0.5839411209886791
1560000087710903040,0.004443817058822297,0.10416444698623017,-0.003314775602096226,-0.12606062460669265,9.897892972948178,-0.7270742875331202
1560000087720925696,0.0012617339888877088,0.09778520509932331,0.006202863542148884,-0.2039453206134979,9.956032587758031,-0.8127414562281924
1560000087730948864,-0.008284515220916056,0.08821634598694228,0.007260378617404029,-0.08277353828833825,9.919553979469923,-0.738985972100224
1560000087740971264,-0.014648681360785232,0.0903427624278974,0.005145348004633898,-0.019974330959072185,9.818001392371885,-0.5533969532197189
1560000087750994176,-0.016770070228624756,0.08077391075147489,0.0030303169296039267,-0.007857440956295338,9.659929161888911,-0.27067432583500606
1560000087761017088,-0.018891458169165487,0.08183711897195245,-0.00014222933624614964,-0.0070705737685035075,9.604183265383778,-0.06840171485311639
1560000087771039744,-0.01358798692686547,0.08077391075147489,0.004087832467118913,0.001047127417973085,9.579984231333228,0.02945352529766681
1560000087781062656,-0.006163126353076531,0.0722682524236129,0.0019728016232188617,0.025280903882842383,9.604303129314582,-0.06888477779734181
1560000087791085312,0.0012617339888877088,0.06907864263409724,-0.00014222933624614964,-0.021716325793215654,9.628621268871827,-0.16722181591364374
1560000087801107968,0.004443817058822297,0.07120505163909385,0.0019728016232188617,-0.08462512990947602,9.656214656731843,-0.2639032931461001
1560000087811130880,0.006565205463012425,0.06163619252671282,-0.001199744758196175,-0.08462512990947602,9.704851729660223,-0.3499480352074476
1560000087821153536,0.006565205463012425,0.05738337079874034,0.005145348004633898,-0.09757662538118514,9.766481607818886,-0.44255542392663805
1560000087831176448,0.007625899896932187,0.05525695807576447,0.004087832467118913,-0.12180642904524902,9.839425767173141,-0.5408776393024378
1560000087841199360,0.00020103955496794668,0.04887771990683687,0.004087832467118913,-0.12340238342917331,9.87830298359906,-0.7540227049864787
1560000087851222016,-0.005102432150981467,0.046751303465881744,0.0030303169296039267,-0.07890787343793036,9.931014565762988,-0.9137117479665183
1560000087861244928,-0.011466598059025945,0.03611924356898166,0.004087832467118913,0.054375916324208906,10.01612883700085,-0.9505880837811904
1560000087871267584,-0.017830763735245725,0.0350560353485041,0.005145348004633898,0.05431903918815726,9.922842313487669,-0.6718633357894519
1560000087881290496,-0.028437708074443346,0.02761359453606782,0.0030303169296039267,0.020394617087612667,9.751819751623922,-0.2687212202503445
1560000087891313664,-0.027377013640523584,0.02974000540005406,-0.0022572601801462006,0.08098320328197188,9.496455679308614,0.1984176568758973
1560000087901336320,-0.01995215260308525,0.023360769090116085,-0.005429806445996277,0.08341971598850023,9.377271605500368,0.46231903766325927
1560000087911358720,-0.008284515220916056,0.01698153092118848,-0.00014222933624614964,0.034959798404090706,9.377271605500368,0.5483515302173647
1560000087921381376,0.005504511492742059,0.021234356367140217,0.0019728016232188617,0.03170669674789384,9.479342132783588,0.26749852313602573
1560000087931404544,0.01611145444099149,0.018044737282676415,-0.00014222933624614964,-0.0085778605880793,9.617062563413516,-0.08064257991463364
1560000087941427200,0.0214149266105903,0.018044737282676415,0.0009152860857038758,-0.12973126030832816,9.811587664080026,-0.5108176488986317
1560000087951450112,0.018232843308831015,0.009539087320267758,-0.0022572601801462006,-0.10895335868890288,9.961611018481138,-0.8330187269187355
1560000087961472768,0.011868676705312442,0.015918324559700547,0.0019728016232188617,-0.03785620237820808,10.074502411582438,-1.071939013707117
1560000087971495680,0.00020103955496794668,0.010602293681755692,0.0019728016232188617,0.022731843339924188,10.050182067424945,-1.0227669621567927
1560000087981518336,-0.010405903625106183,0.00528626233906343,-0.00014222933624614964,0.07042718980427592,9.961198426069336,-0.8232424360001072
1560000087991541248,-0.017830763735245725,0.007412674597291891,-0.003314775602096226,0.10677623400688976,9.815292758034229,-0.49136545323820846
1560000088001563904,-0.02101284703700501,-0.001092975481303618,-0.0022572601801462006,0.09797171716162305,9.624051626039845,-0.0792764981823913
1560000088011586816,-0.018891458169165487,-0.001092975481303618,-0.0022572601801462006,0.0898726053552732,9.465783390452357,0.2653051920528739
1560000088021609216,-0.008284515220916056,-0.004282594217206864,-0.001199744758196175,0.0898726053552732,9.380673168514965,0.4619695177846646
1560000088031632128,0.009747288764771711,-0.0021561817266047,-0.004372291139611212,0.06328941658328247,9.455628482137026,0.2900549246090195
1560000088041655296,0.01611145444099149,-0.008535419430784896,-0.004372291139611212,0.020596519777959385,9.59413625992637,-0.03490939543672789
1560000088051677952,0.0214149266105903,-0.003219387971905782,-0.004372291139611212,-0.0641982549972956,9.7643202746608,-0.4773094389272299
1560000088061700608,0.023536315478429826,0.001033437125485398,-0.005429806445996277,-0.05902579153151762,9.921623203503025,-0.8545559992408709
1560000088071723776,0.012929372066530997,0.001033437125485398,-0.001199744758196175,0.025789404414193307,10.067530779690905,-1.1741441187997652
1560000088081746432,0.007625899896932187,0.001033437125485398,-0.0022572601801462006,0.009080836354821348,10.066357630276322,-1.0931505021190322
1560000088091707904,-0.009345209654835818,0.008475880958779825,0.004087832467118913,0.008916238478823002,9.99408189605951,-0.9058893878317192
1560000088101730816,-0.012527292492945707,0.01698153092118848,-0.00014222933624614964,0.05738163114236661,9.799539994731402,-0.5617206713529106
1560000088111753472,-0.014648681360785232,0.01910794364416435,0.0030303169296039267,0.09700933919955888,9.64934629262726,-0.19061348690367041
1560000088121776640,-0.017830763735245725,0.021234356367140217,0.0019728016232188617,0.13336346296202023,9.526617685986915,0.15382306040763455
1560000088131799296,-0.009345209654835818,0.030803209902552364,0.0030303169296039267,0.16970786771521593,9.47798827619669,0.252144407924066
1560000088141822208,0.0012617339888877088,0.025487179954102324,0.005145348004633898,0.16757816864888983,9.493707978852848,0.1943400710620051
1560000088151844864,0.007625899896932187,0.02974000540005406,0.0030303169296039267,0.13123235910174072,9.566654912994217,-0.002310219869914809
1560000088161867264,0.01611145444099149,0.03292962634350749,0.0030303169296039267,0.1736608379022725,9.718635770975856,-0.35875172568458924
1560000088171889920,0.017172148874911253,0.030803209902552364,0.004087832467118913,0.1823321750527609,9.852721482473951,-0.6749788915395055
1560000088181913088,0.013990065573151966,0.03292962634350749,0.0019728016232188617,0.10963991910418253,9.937826998394472,-0.8839216700619658
1560000088191935744,0.006565205463012425,0.0414352735174317,0.0019728016232188617,0.06341225667533662,9.96096986847067,-0.9228442155104926
1560000088201958656,0.0012617339888877088,0.03718244807147997,0.0019728016232188617,0.02706732660717207,9.947002948542751,-0.870024366412134
1560000088211981824,-0.006163126353076531,0.0414352735174317,0.0019728016232188617,-0.009279881875113263,9.837578924359056,-0.6242020195634187
1560000088222004224,-0.012527292492945707,0.0456881026813627,0.004087832467118913,0.037430767377522295,9.721746123348806,-0.3783856367015476
1560000088232027136,-0.007223820786996293,0.049940924409335175,0.007260378617404029,0.1585960507782789,9.600155854937713,-0.13254717980733954
1560000088242049792,-0.006163126353076531,0.04781451168635931,0.0030303169296039267,0.12249395751634182,9.557476083551018,0.03351746080209514
1560000088252072704,-0.004041737717061705,0.0456881026813627,0.004087832467118913,0.11364043631204553,9.54484999940328,0.09686643065668901
1560000088262095360,0.009747288764771711,0.04887771990683687,0.0019728016232188617,0.1863324754361485,9.58132307682931,-0.038331446011966
1560000088272118016,0.009747288764771711,0.04781451168635931,0.0009152860857038758,0.24141729038342966,9.670800593240118,-0.22711176320331908
1560000088282140928,0.012929372066530997,0.05100413262981274,-0.00014222933624614964,0.26692888527604314,9.777151123881957,-0.4345032613428693
1560000088292163840,0.012929372066530997,0.05950977980373695,-0.001199744758196175,0.13366094329139858,9.862255880380221,-0.631153557063399
1560000088302186752,0.006565205463012425,0.058446575301238646,0.0009152860857038758,0.10871882053594206,9.915390021084985,-0.7179128403701751
1560000088312209152,0.003383122624902535,0.05632016257826278,0.0030303169296039267,0.18141345859983077,9.939706071290328,-0.7056216914309105
1560000088322232320,-0.0029810433990542923,0.06482580975218699,-0.001199744758196175,0.10830906196870504,9.85147657086394,-0.5567995277752869
1560000088332255232,-0.005102432150981467,0.0722682524236129,-0.001199744758196175,0.06292290218444704,9.762122165697978,-0.3650159050610877
1560000088342277632,-0.005102432150981467,0.06801543441361968,0.0019728016232188617,0.09927291884577069,9.689167379947705,-0.10688247871440298
1560000088352300544,-0.005102432150981467,0.07439466886456803,0.005145348004633898,0.17076785926667232,9.633850645324026,0.026444837251896648
1560000088362323200,0.0023224281909827726,0.0829003197564715,0.004087832467118913,0.23741656113072368,9.592812200638575,0.08945353432691366
1560000088372346112,0.003383122624902535,0.08183711897195245,-0.00014222933624614964,0.17683932248418627,9.604970810034775,-0.008873072657945527
1560000088382369024,0.008686594330851949,0.07971070253099732,-0.0022572601801462006,0.14803851207413032,9.661769449759928,-0.18456131194675912
1560000088392391680,0.010807983198691473,0.0850267287614681,-0.003314775602096226,0.14803851207413032,9.759025611171454,-0.4303610152737571
1560000088402414336,0.007625899896932187,0.0850267287614681,0.0009152860857038758,0.14803851207413032,9.845058485475288,-0.5966768225965915
1560000088412437248,0.008686594330851949,0.08715314520242323,-0.003314775602096226,0.13233993062602856,9.88290866755319,-0.6728566096477547
1560000088422460160,0.003383122624902535,0.09246917886885253,-0.0022572601801462006,0.08387813994481622,9.822119258514453,-0.574529990691193
1560000088432483072,-0.0019203490810468793,0.09459558043789063,-0.0022572601801462006,0.03541843413993498,9.752534850382634,-0.37838150376217683
1560000088442505472,-0.0019203490810468793,0.09991162154027844,-0.00014222933624614964,-0.001100405130798658,9.69157304452738,-0.1600098828547451
1560000088452528128,-0.0019203490810468793,0.09565878865836819,-0.001199744758196175,0.04736887822027057,9.715892810166258,-0.04937534595613845
1560000088462551040,0.0023224281909827726,0.09672199687884575,-0.00014222933624614964,0.07048396915281341,9.714772719158612,-0.09304234651227096
1560000088472573952,0.009747288764771711,0.09672199687884575,0.0009152860857038758,0.07048396915281341,9.69045996550758,-0.2773800753075927
1560000088482596864,0.008686594330851949,0.09459558043789063,-0.00014222933624614964,0.02578046327987954,9.778297968903448,-0.46171779526829126
1560000088492619520,0.005504511492742059,0.09459558043789063,0.0009152860857038758,0.035847571399249635,9.855976471967667,-0.6064830960038466
1560000088502642176,0.00020103955496794668,0.09246917886885253,-0.001199744758196175,0.1691262141237829,9.892452866703806,-0.6679412737023225
1560000088512665088,-0.0008596547630394663,0.09778520509932331,0.0009152860857038758,0.11876089810882595,9.841175157513653,-0.5874587058796332
1560000088522688000,-0.007223820786996293,0.09778520509932331,0.0019728016232188617,0.018199902732670928,9.760501029003938,-0.4418252219240538
1560000088532710912,-0.009345209654835818,0.09565878865836819,-0.0022572601801462006,0.0666657289873629,9.711865574524102,-0.2205719512087045
1560000088542733568,-0.008284515220916056,0.09991162154027844,0.0030303169296039267,0.05830508550147483,9.631556670490871,-0.03136567462291695
1560000088552755968,0.0012617339888877088,0.09459558043789063,0.0009152860857038758,-0.002266570153725181,9.522145333789027,0.12840033492789588
1560000088562778880,0.00020103955496794668,0.09140597064837497,0.0019728016232188617,-0.0070705737685035075,9.535854373011635,0.11844041394363948
1560000088572801792,0.010807983198691473,0.09672199687884575,-0.001199744758196175,-0.010945308646801336,9.587376183931285,0.011324017312846588
1560000088582824704,0.01611145444099149,0.08715314520242323,-0.001199744758196175,-0.02304259639643093,9.696633579501128,-0.2709412223770811
1560000088592870400,0.018232843308831015,0.0829003197564715,-0.003314775602096226,-0.00029237830648913207,9.823772138560148,-0.5364801808213625
1560000088602893312,0.013990065573151966,0.08821634598694228,-0.00014222933624614964,0.030256367962836938,9.942968553346356,-0.7725440733715883
1560000088612916224,0.008686594330851949,0.08608993698194567,-0.00014222933624614964,0.018139839386722666,9.955127640825244,-0.846295610320123
1560000088622938880,0.0023224281909827726,0.08608993698194567,0.0009152860857038758,0.031201725800998392,9.923070196484112,-0.7667898284563428
1560000088632962048,-0.006163126353076531,0.0829003197564715,-0.001199744758196175,0.06755271656723882,9.850113458065918,-0.5455266845077679
1560000088642984448,-0.011466598059025945,0.08396352054099054,0.004087832467118913,0.14845382828016568,9.72127654133865,-0.2451898702810994
1560000088653007360,-0.012527292492945707,0.08608993698194567,-0.0022572601801462006,0.17527851323624724,9.61081086944187,0.02679502793295517
1560000088663030272,-0.009345209654835818,0.08183711897195245,-0.001199744758196175,0.07835781079976495,9.550023267514195,0.22344238394262428
1560000088673052672,-0.0019203490810468793,0.0850267287614681,-0.00014222933624614964,0.05980296997538473,9.524186318003537,0.23458821125337376
1560000088683075584,0.007625899896932187,0.08608993698194567,-0.0022572601801462006,0.07048396915281341,9.529305935106189,0.15420997209946585
1560000088693097984,0.01611145444099149,0.08927955420741984,0.0009152860857038758,0.07048396915281341,9.663025074317575,-0.06699465765259635
1560000088703121408,0.01611145444099149,0.08077391075147489,-0.004372291139611212,0.05793417713389121,9.78416306473079,-0.3455118921170883
1560000088713144064,0.019293537742750777,0.08927955420741984,-0.003314775602096226,0.033706018378830284,9.893572125573753,-0.677326717986636
1560000088723166720,0.01611145444099149,0.08927955420741984,-0.00014222933624614964,-0.001637550117118268,9.958369570063338,-0.8400159354885829
1560000088733189632,0.004443817058822297,0.10097482232479749,0.004087832467118913,0.015799456128641226,10.003739313559002,-0.9173559569361074
1560000088743212544,-0.005102432150981467,0.09778520509932331,-0.0022572601801462006,0.14909118358608872,10.015898698434803,-0.8435989761404259
1560000088753235200,-0.01358798692686547,0.10097482232479749,0.004087832467118913,0.13470240190323884,9.93217935585801,-0.6817433636076113
1560000088763257856,-0.014648681360785232,0.10416444698623017,0.0019728016232188617,0.086010961739123,9.802108868053034,-0.46935189141951017
1560000088773280768,-0.01995215260308525,0.09459558043789063,-0.00014222933624614964,0.21930783090972844,9.607543305983066,-0.13743248049732504
1560000088783303680,-0.0157093748674062,0.10416444698623017,0.0009152860857038758,0.2524687478809245,9.488348016738112,0.15002841223481012
1560000088793326336,-0.011466598059025945,0.10416444698623017,-0.001199744758196175,0.19188575553853665,9.439711984125235,0.39586832193223226
1560000088803348736,0.0012617339888877088,0.10310123876575261,-0.001199744758196175,0.15351081011973874,9.446781918640488,0.31508045555611863
1560000088813371904,0.013990065573151966,0.1137332986626527,0.0009152860857038758,0.10184829581705937,9.512730894480159,0.13065983644882792
1560000088823394816,0.0214149266105903,0.10522765520670774,-0.0022572601801462006,0.01705024484186672,9.69507804444901,-0.21344237331752564
1560000088833417472,0.023536315478429826,0.1084172649962234,-0.00014222933624614964,0.027609224219740727,9.851351116753676,-0.5663904089446652
1560000088843440640,0.0214149266105903,0.11267009787813365,-0.0022572601801462006,0.0718823349829162,9.984636439241978,-0.9030110448755673
1560000088853463296,0.015050760007071728,0.10948047321670096,0.0019728016232188617,0.08399785492641598,10.021110665152435,-1.0873745195941307
1560000088863485696,0.0012617339888877088,0.10629085599122678,-0.00014222933624614964,0.09611337426204258,10.02000875100556,-1.094466988780514
1560000088873508608,-0.011466598059025945,0.11267009787813365,0.0009152860857038758,0.10822918122942406,9.983533657446168,-0.9346815378987516
1560000088883531520,-0.018891458169165487,0.1211757413340786,0.0030303169296039267,0.2090090520563421,9.858084945543958,-0.6287389032056576
1560000088893554176,-0.023134235904844536,0.11904933232908199,0.0009152860857038758,0.26470986156274195,9.731994828353086,-0.3169095152758895
1560000088903577088,-0.022073541470924773,0.12755498322098546,-0.001199744758196175,0.20412542807205158,9.622560393832819,-0.02189460599086368
1560000088913600000,-0.016770070228624756,0.12542856678003034,0.0019728016232188617,0.23008352168393886,9.539190565575428,0.09750960954886614
1560000088923622912,-0.010405903625106183,0.1371238423333665,-0.001199744758196175,0.2754801738159757,9.485631410490674,0.11867521323874075
1560000088933645312,0.0012617339888877088,0.14031346699479919,-0.001199744758196175,0.2027952683242814,9.582884419122287,-0.0779569539060847
1560000088943668224,0.003383122624902535,0.14243986856383728,-0.001199744758196175,0.1549854023072001,9.673906012156392,-0.29354475445469985
1560000088953690880,0.009747288764771711,0.14775589479430806,-0.00014222933624614964,0.13075270774569153,9.759017752905002,-0.5270878052238387
1560000088963713792,0.005504511492742059,0.1498823112352632,-0.004372291139611212,0.1507780976289833,9.810815350708822,-0.5810266814559137
1560000088973736704,0.005504511492742059,0.1573247539066891,-0.00014222933624614964,0.1787992374596583,9.825210349482736,-0.5755972023211534
1560000088983759104,0.00020103955496794668,0.15838796212716666,0.0019728016232188617,0.2151416878455825,9.764426840176215,-0.47728110677831953
1560000088993782016,0.0023224281909827726,0.1679568212395477,-0.0022572601801462006,0.27738331735607835,9.720961065623605,-0.3264141477027205
1560000089003804928,-0.0019203490810468793,0.1753992639109736,-0.00014222933624614964,0.335130071087604,9.683122599159317,-0.16812267341687528
1560000089013827584,0.0023224281909827726,0.18177849836192195,-0.00014222933624614964,0.2745488610515864,9.634488012541166,-0.11895615328746784
1560000089023850752,0.006565205463012425,0.18390491480287707,-0.00014222933624614964,0.2201729509820699,9.648095002618899,-0.1515877037733451
1560000089033873408,0.006565205463012425,0.18709453946430976,-0.001199744758196175,0.17171735365858526,9.721033090363742,-0.262190993873255
1560000089043896064,0.012929372066530997,0.1924105508228635,0.0009152860857038758,0.2115951622464159,9.793975130618387,-0.49602058268476557
1560000089053918720,0.009747288764771711,0.19666338370477376,-0.0022572601801462006,0.211067212482979,9.86313777853623,-0.6806609901942219
1560000089063941888,0.007625899896932187,0.20835865925810992,-0.003314775602096226,0.1020304516099616,9.92392592290833,-0.7298232864531244
1560000089073964544,-0.0008596547630394663,0.2094218674785875,0.0009152860857038758,0.11371243341096268,9.863429014929121,-0.6300258999431027
1560000089083987456,-0.005102432150981467,0.2094218674785875,-0.00014222933624614964,0.17309571127137713,9.759292933886764,-0.45815521471900006
1560000089093943040,-0.008284515220916056,0.22005391993952905,0.0019728016232188617,0.22123528089357436,9.698907713359056,-0.20176402447806974
1560000089103965440,-0.007223820786996293,0.2189907117190515,0.0009152860857038758,0.25116003946421034,9.63192076000234,-0.025148470810709013
1560000089113988608,-0.004041737717061705,0.22536996104191687,-0.001199744758196175,0.2632752389191938,9.558974865493601,0.07317608698988096
1560000089124011264,0.005504511492742059,0.237065221723336,-0.003314775602096226,0.2533534241165376,9.618714340573566,-0.0632293051287415
1560000089134034176,0.007625899896932187,0.22536996104191687,-0.004372291139611212,0.21879105153941797,9.699157658233643,-0.2267767373380513
1560000089144056832,0.009747288764771711,0.23600202837477546,-0.004372291139611212,0.1339811524511755,9.796422493808183,-0.3988518718865215
1560000089154080000,0.012929372066530997,0.2317491954928652,-0.001199744758196175,0.13501390567347066,9.833387505160962,-0.5273837229826238
1560000089164102656,0.005504511492742059,0.24344445617428434,-0.004372291139611212,0.16349563880912504,9.844230409939428,-0.6220426347642103
1560000089174125312,0.00020103955496794668,0.23068598727238765,-0.003314775602096226,0.1271479995736732,9.844230409939428,-0.5851688397623099
1560000089184148224,-0.0008596547630394663,0.2317491954928652,-0.003314775602096226,0.09695356594698243,9.801002551750177,-0.492108149076397
1560000089194170880,-0.005102432150981467,0.23387561193382034,-0.005429806445996277,0.07272324758726557,9.715899161006034,-0.34462174820297886
1560000089204193792,-0.0029810433990542923,0.24238124795380678,-0.001199744758196175,0.03749801399584092,9.68596633511728,-0.25291021700528915
1560000089214216448,-0.0029810433990542923,0.24663408083571703,-0.001199744758196175,0.00859648259710519,9.661651436524322,-0.1819801567840291
1560000089224239360,0.0012617339888877088,0.237065221723336,-0.00014222933624614964,-0.003519324370276279,9.637334707484728,-0.14510658327595297
1560000089234262016,0.0023224281909827726,0.23812842994381356,-0.004372291139611212,0.027191089763048612,9.664589268023724,-0.1951244494527546
1560000089244284928,0.007625899896932187,0.237065221723336,-0.0022572601801462006,0.0795414132051813,9.711929544807836,-0.28642285138364043
1560000089254307584,0.009747288764771711,0.23812842994381356,-0.00014222933624614964,0.16434248961352005,9.748399911690065,-0.42161068663302087
1560000089264330752,0.010807983198691473,0.24131803973332921,-0.001199744758196175,0.21233925047270077,9.797185353773207,-0.5381350765756083
1560000089274353152,0.005504511492742059,0.23600202837477546,-0.001199744758196175,0.22445386412228707,9.857971212508227,-0.6364549914248824
1560000089284375808,0.004443817058822297,0.22643316926239443,-0.007544837521026249,0.21461778401851261,9.841658956959574,-0.6457004032760452
1560000089294398720,-0.0008596547630394663,0.227496377482872,-0.010717383671311365,0.2062044225700319,9.817343498127297,-0.6269240128720542
1560000089304421632,-0.0019203490810468793,0.22536996104191687,-0.009659868133796379,0.2062044225700319,9.79302737542944,-0.5654680274941833
1560000089314444544,-0.006163126353076531,0.2243067528214393,-0.005429806445996277,0.07804957325056383,9.734418629176073,-0.4693479028624255
1560000089324467200,-0.010405903625106183,0.22643316926239443,-0.008602353058541234,-0.09097166399288041,9.671668267861305,-0.3523026758487099
1560000089334490112,-0.006163126353076531,0.22111712816000662,-0.007544837521026249,-0.1515533956759498,9.695986081323415,-0.18021830803123168
1560000089344513024,-0.006163126353076531,0.22005391993952905,-0.007544837521026249,-0.16934265002201948,9.652825876495067,-0.07635609189303466
1560000089354535680,0.00020103955496794668,0.227496377482872,-0.0022572601801462006,-0.14511269299987797,9.543408684414022,-0.03948503973122574
1560000089364558336,0.004443817058822297,0.21686429527809636,-0.003314775602096226,-0.07706735465836273,9.620863358761332,-0.11373969729522772
1560000089374581248,0.009747288764771711,0.22218033638048418,0.0009152860857038758,0.006664566396758054,9.71443053713631,-0.24457743569299362
1560000089384604160,0.005504511492742059,0.2189907117190515,-0.001199744758196175,0.11570845943624308,9.799539141195378,-0.47811354331850076
1560000089394626560,0.010807983198691473,0.22643316926239443,0.0030303169296039267,0.23326401995559293,9.850430584391493,-0.5905834842214911
1560000089404649472,0.005504511492742059,0.2296227790519101,0.0009152860857038758,0.34692126188860034,9.879383377329836,-0.6393645199326741
1560000089414672128,-0.0008596547630394663,0.2243067528214393,0.0009152860857038758,0.39538403843969916,9.842908002900812,-0.5779090829256063
1560000089424695040,-0.0019203490810468793,0.23281240371334277,-0.0022572601801462006,0.3890177676643862,9.794204676137538,-0.47318765594055473
1560000089434718208,-0.006163126353076531,0.23281240371334277,-0.006487321983511263,0.3284346137805405,9.733409909102617,-0.32568327562365096
1560000089444741120,-0.007223820786996293,0.23812842994381356,-0.004372291139611212,0.2678528583694278,9.672615493521862,-0.15599241631322053
1560000089454763776,-0.004041737717061705,0.24238124795380678,-0.003314775602096226,0.21093817207234686,9.622854083974792,-0.006218092694692569
1560000089464786176,0.0012617339888877088,0.24344445617428434,-0.005429806445996277,0.162478978321682,9.59853937907968,0.09210325721595128
1560000089474809088,0.007625899896932187,0.2562029548200151,-0.004372291139611212,0.09701096293086713,9.659569068858906,0.009242152943521847
1560000089484831744,0.012929372066530997,0.2530133152866654,-0.00014222933624614964,0.042781099738033096,9.751885902748542,-0.16550614611872458
1560000089494854656,0.013990065573151966,0.26470859084000153,0.0009152860857038758,0.15183634155168133,9.800524538430539,-0.4728224719828122
1560000089504877568,0.008686594330851949,0.2678982006295172,-0.00014222933624614964,0.23658527467070886,9.873552804564437,-0.663015833891934
1560000089514900480,0.006565205463012425,0.28065669927524795,-0.0022572601801462006,0.2971697176032243,9.970828396489848,-0.7367696019218196
1560000089524923392,-0.0029810433990542923,0.2912887517361895,-0.0022572601801462006,0.47788341519888355,9.892751831538401,-0.5778607425717609
1560000089534946048,-0.009345209654835818,0.3019208041971311,0.0019728016232188617,0.598770133637951,9.80280266517467,-0.3786743638101824
1560000089544968960,-0.009345209654835818,0.3178689126323775,-0.001199744758196175,0.5502996630708537,9.729842845565951,-0.14510701716851726
1560000089554991616,-0.011466598059025945,0.3242481322114088,-0.001199744758196175,0.5697881831324335,9.6483661319206,0.010881236694490842
1560000089565014016,-0.004041737717061705,0.3327537979752293,-0.005429806445996277,0.6121432167652119,9.574291795202868,0.11892167545447216
1560000089575036928,-0.0008596547630394663,0.345512266877126,-0.004372291139611212,0.6000099199469962,9.59864363630041,0.0943037894757337
1560000089585059840,0.004443817058822297,0.3497650700152022,-0.010717383671311365,0.5208889930974183,9.641311562741267,-0.02915560038534648
1560000089595059712,0.009747288764771711,0.36358676200949347,-0.006487321983511263,0.37586061067892396,9.701951693802888,-0.24984718244340232
1560000089605082368,0.009747288764771711,0.3689028179837983,-0.010717383671311365,0.3067982847700296,9.839329229341722,-0.5153229235651794
1560000089615105280,0.012929372066530997,0.37740845400378475,-0.007544837521026249,0.2389603200597337,9.952441568198687,-0.7378511979785317
1560000089625127936,0.003383122624902535,0.3859140900237712,-0.009659868133796379,0.15415470424775898,9.988915099444391,-0.8484653295986555
1560000089635150848,-0.0029810433990542923,0.38378770332665013,-0.010717383671311365,0.13712154406951851,9.914870503205982,-0.7786003561617166
1560000089645173760,-0.01358798692686547,0.39654614248471276,-0.008602353058541234,0.14803851207413032,9.798102642683908,-0.6201710998440352
1560000089655196416,-0.014648681360785232,0.3997357820180625,-0.005429806445996277,0.14803851207413032,9.725155275195242,-0.3620660354681727
1560000089665219328,-0.012527292492945707,0.40611503134092786,-0.01177489920882635,0.1299167835999754,9.627959840657251,-0.14072485354269393
1560000089675241984,-0.012527292492945707,0.40611503134092786,-0.004372291139611212,0.09357130547037026,9.50638330831878,0.0436331595204964
1560000089685264896,-0.004041737717061705,0.41249425091995917,-0.004372291139611212,0.06810848009654212,9.559532777101493,0.05135478408475818
1560000089695287808,0.00020103955496794668,0.41036783447900405,0.0019728016232188617,0.05109533295035362,9.617992145087099,-0.00851448564714824
1560000089705310464,0.007625899896932187,0.42418952647329533,0.0009152860857038758,0.05109533295035362,9.642301907694762,-0.18054617144381094
1560000089715332864,0.012929372066530997,0.42631594291425046,0.0030303169296039267,0.14400843837887217,9.7513793493522,-0.39545451361404027
1560000089725355776,0.011868676705312442,0.4295055527037661,0.0019728016232188617,0.2608483747798835,9.881965776577076,-0.6123166667646415
1560000089735378688,0.003383122624902535,0.43163196914472124,0.0009152860857038758,0.22450581111094473,9.869809038400941,-0.6737644124308227
1560000089745401344,0.005504511492742059,0.4295055527037661,0.0030303169296039267,0.29640463043319276,9.857652679090304,-0.6681058938540613
1560000089755424512,-0.004041737717061705,0.4348215789342369,-0.004372291139611212,0.4781190610718397,9.845495832418836,-0.5943679294791127
1560000089765447424,-0.010405903625106183,0.43907441181614715,-0.003314775602096226,0.4102059836430513,9.789772306715614,-0.42153332507150804
1560000089775470080,-0.008284515220916056,0.4284423593552056,-0.008602353058541234,0.3276083987492238,9.732580126890364,-0.26623647782030185
1560000089785492736,-0.007223820786996293,0.43269516249328177,-0.006487321983511263,0.2791513563111684,9.683953491706538,-0.1802091359942996
1560000089795515392,-0.0019203490810468793,0.43163196914472124,-0.013889930283856322,0.23911407108091848,9.643776185365763,-0.17958977079698688
1560000089805538304,-0.0008596547630394663,0.42631594291425046,-0.012832414746341336,0.19132493247656238,9.621088746412484,-0.22226496158096945
1560000089815561216,0.003383122624902535,0.4231263331247348,-0.01177489920882635,0.0338428367969639,9.7304965513925,-0.32057989438943724
1560000089825583872,0.005504511492742059,0.4209999166837797,-0.009659868133796379,-0.0817525157269954,9.773849934737155,-0.43103754965282565
1560000089835606528,0.004443817058822297,0.4167470838018694,-0.007544837521026249,-0.15444023538474033,9.749535591243147,-0.5539373857541756
1560000089845629696,0.003383122624902535,0.417810306894264,-0.005429806445996277,-0.20548083402262,9.822989918162888,-0.610951159638936
1560000089855652352,-0.0008596547630394663,0.4146206673609143,-0.005429806445996277,-0.2255293332512012,9.861761717602581,-0.6276872590488247
1560000089865675264,-0.004041737717061705,0.4018621984590176,-0.0022572601801462006,-0.17707041787029792,9.788818036148525,-0.5662367542879614
1560000089875698432,-0.004041737717061705,0.40505180824853326,-0.0022572601801462006,-0.0698585637499531,9.766403457375873,-0.4962679555776065
1560000089885721088,-0.005102432150981467,0.39654614248471276,-0.0022572601801462006,0.05557287036512627,9.760786932626399,-0.4247957246574739
1560000089895743488,-0.007223820786996293,0.39548294913615223,0.0019728016232188617,0.10403379732310719,9.699998608503419,-0.3756333021797711
1560000089905766144,-0.004041737717061705,0.3933565326951971,0.0009152860857038758,0.13461122215321455,9.68706758898313,-0.36275617339311234
1560000089915789312,-0.008284515220916056,0.3869772833723317,-0.00014222933624614964,0.14672641688794508,9.72354083939305,-0.3873373215225636
1560000089925811712,-0.0019203490810468793,0.3859140900237712,-0.001199744758196175,0.10483021113978663,9.694970899127876,-0.36808260948525073
1560000089935834624,-0.0019203490810468793,0.39229333934663657,-0.0022572601801462006,0.07753998810161553,9.67974194197306,-0.3399236526827795
1560000089945857280,0.003383122624902535,0.3869772833723317,-0.00014222933624614964,0.1017677855834209,9.716211288968587,-0.30305588612409695
1560000089955880192,0.0023224281909827726,0.3944197557875917,0.0019728016232188617,0.050686406865424284,9.761079851847958,-0.3680536490940742
1560000089965903104,0.003383122624902535,0.3880405064647263,-0.0022572601801462006,-0.027553201630811208,9.803122184260731,-0.48643387340452665
1560000089975925760,0.005504511492742059,0.3848508669313766,0.0019728016232188617,-0.039668360220639784,9.77880615022189,-0.6830824525957102
1560000089985948928,0.006565205463012425,0.37740845400378475,-0.00014222933624614964,0.04913073574866421,9.814059255810383,-0.7653192016974264
1560000089995971584,-0.0029810433990542923,0.38378770332665013,0.004087832467118913,0.24297502186491954,9.911321228350843,-0.7284472508982354
1560000090005994240,-0.006163126353076531,0.3869772833723317,0.0019728016232188617,0.23203845552839295,9.770645412309452,-0.571311349663678
1560000090016016896,-0.008284515220916056,0.3848508669313766,0.004087832467118913,0.24123693572017607,9.656695112266473,-0.39569791906851437
1560000090026040064,-0.010405903625106183,0.3880405064647263,0.0019728016232188617,0.3623924846533828,9.681011335387092,-0.21133389216181403
1560000090036062464,-0.005102432150981467,0.39016692290568145,-0.001199744758196175,0.3667078564507081,9.613202483450277,-0.0947021270004188
1560000090046085376,0.003383122624902535,0.3869772833723317,-0.0022572601801462006,0.3203894245782697,9.521008055023943,-0.026083418401351227
1560000090056108544,0.007625899896932187,0.3827245099780896,-0.003314775602096226,0.2961604567348105,9.606106640225203,-0.1366919753519823
1560000090066130944,0.012929372066530997,0.3859140900237712,-0.005429806445996277,0.23054395001820993,9.714932725424012,-0.32527064392966987
1560000090076153856,0.008686594330851949,0.3827245099780896,-0.009659868133796379,0.12151788650144363,9.848654251651926,-0.595636662468868
1560000090086176512,0.010807983198691473,0.3933565326951971,-0.005429806445996277,0.012370574255329517,9.906900384332765,-0.7352457547596041
1560000090096180480,0.005504511492742059,0.39229333934663657,-0.0022572601801462006,-0.02696066170549697,9.927545936345506,-0.7415343030861151
1560000090106203136,-0.0019203490810468793,0.3869772833723317,-0.00014222933624614964,0.10630411135661871,9.878916410031863,-0.4588562309256682
1560000090116226048,-0.007223820786996293,0.39229333934663657,-0.0022572601801462006,0.1813288773213954,9.679948248707477,-0.09170902011290138
1560000090126248960,0.00020103955496794668,0.3859140900237712,-0.004372291139611212,0.22559304932988056,9.434586659148797,0.2723568073907792
1560000090136271616,0.006565205463012425,0.39016692290568145,-0.004372291139611212,0.22559304932988056,9.422427435292597,0.19860814026656343
1560000090146294272,0.018232843308831015,0.3933565326951971,-0.004372291139611212,0.21969885376931658,9.534481848623452,0.017232364248168375
1560000090156317184,0.02035423217667054,0.3933565326951971,-0.006487321983511263,0.20758395193728463,9.77763046116321,-0.2777343106100358
1560000090166340096,0.02035423217667054,0.39760936557710735,-0.004372291139611212,0.2062044225700319,9.859190000002386,-0.5727359720905942
1560000090176362752,0.017172148874911253,0.400798975366623,-0.004372291139611212,0.19581194030825952,9.94083988992341,-0.8114999214974112
1560000090186385664,0.008686594330851949,0.3997357820180625,-0.005429806445996277,0.15946505496694097,10.07457869898599,-0.9098279445514731
1560000090196408832,-0.0008596547630394663,0.4071782246894884,-0.005429806445996277,0.1065025517467566,10.041595880353235,-0.8311830509161954
1560000090206431232,-0.007223820786996293,0.40611503134092786,-0.005429806445996277,0.0707387589191402,9.93010077759982,-0.6588182191340328
1560000090216454144,-0.011466598059025945,0.408241447781883,-0.003314775602096226,0.3009562064524043,9.796350039820382,-0.35151557712495624
1560000090226476800,-0.0157093748674062,0.40611503134092786,-0.007544837521026249,0.43711796168329736,9.656689188329153,-0.11576632684742763
1560000090236499712,-0.011466598059025945,0.40505180824853326,-0.003314775602096226,0.4734735123397535,9.510756882088742,0.04405479746197502
1560000090246522624,-0.008284515220916056,0.40398861489997273,-0.006487321983511263,0.2631350905015251,9.504774249064658,0.18208282076813315
1560000090256545024,-0.0008596547630394663,0.4156838904533089,-0.010717383671311365,0.10713442781835296,9.530790254524367,0.22622153347028598
1560000090266567936,0.006565205463012425,0.4071782246894884,-0.01177489920882635,0.16771797720267506,9.591586595684845,0.04183997412640822
1560000090276590848,0.015050760007071728,0.40611503134092786,-0.009659868133796379,0.029214547575596467,9.71063791520303,-0.2771439342480007
1560000090286613760,0.015050760007071728,0.408241447781883,-0.008602353058541234,-0.17239116589579198,9.853439721593597,-0.6467198811549216
1560000090296636672,0.009747288764771711,0.39548294913615223,-0.007544837521026249,-0.06334727521658777,9.962866022506436,-0.8925473618577935
1560000090306659584,0.004443817058822297,0.40292539180757814,-0.006487321983511263,0.016382207766605976,10.025223872698751,-0.9837285937596913
1560000090316681984,-0.006163126353076531,0.4018621984590176,-0.005429806445996277,0.06484529469534792,10.037382200971388,-0.9099816618136309
1560000090326704640,-0.014648681360785232,0.3986725589256679,-0.004372291139611212,0.07048396915281341,9.899129934899365,-0.5429875862728217
1560000090336727552,-0.023134235904844536,0.4018621984590176,-0.007544837521026249,0.12198408832591714,9.720397924438133,-0.13389101347585747
1560000090346750464,-0.02101284703700501,0.39760936557710735,-0.007544837521026249,0.30373471877572467,9.489373040801935,0.28404055935036654
1560000090356773376,-0.010405903625106183,0.3997357820180625,-0.0022572601801462006,0.2537171132202944,9.407878394012243,0.4416311068424499
1560000090366796288,0.0012617339888877088,0.4018621984590176,-0.004372291139611212,0.1122689118125336,9.407794240821907,0.4490058316883877
1560000090376818688,0.008686594330851949,0.3997357820180625,-0.006487321983511263,0.14861082439915682,9.541515973755633,0.1294832822906955
1560000090386841600,0.017172148874911253,0.4071782246894884,-0.006487321983511263,0.14405842923541823,9.681103308531851,-0.2078278327595528
1560000090396864512,0.019293537742750777,0.39654614248471276,-0.004372291139611212,0.09560240179237596,9.826980786006285,-0.5642194085284509
1560000090406887168,0.01611145444099149,0.3986725589256679,-0.003314775602096226,0.05782831876951259,9.951419345629734,-0.7255583113118623
1560000090416910080,0.009747288764771711,0.3986725589256679,-0.004372291139611212,0.048746077347103345,10.01485806838522,-0.8123524339077889
1560000090426932480,0.0023224281909827726,0.400798975366623,-0.001199744758196175,0.10932493748317995,9.929750376816692,-0.7754789487795224
1560000090436955392,-0.004041737717061705,0.40292539180757814,-0.005429806445996277,0.16165531938230163,9.861199322135942,-0.6381540749236465
1560000090446978304,-0.011466598059025945,0.4093046411304435,0.0019728016232188617,0.21599543934810886,9.793527462945143,-0.44285150858781874
1560000090457001216,-0.014648681360785232,0.4146206673609143,0.0019728016232188617,0.33716251451254137,9.647616850546804,-0.12325678656838007
1560000090467023872,-0.008284515220916056,0.41993672333521914,-0.00014222933624614964,0.35933166789937176,9.565994835303282,0.11360926435696274
1560000090477047040,-0.004041737717061705,0.41887350024282455,-0.0022572601801462006,0.27452530947651105,9.553837085166643,0.26109608609353097
1560000090487069440,0.004443817058822297,0.42631594291425046,-0.001199744758196175,0.2643703330659335,9.584482597424625,0.00832315236452913
1560000090497092352,0.011868676705312442,0.43163196914472124,-0.001199744758196175,0.2609813915612717,9.671966177062846,-0.32299171144458505
1560000090507115008,0.015050760007071728,0.4337583558418423,-0.001199744758196175,0.24886604816702276,9.890806460573945,-0.7162946057998796
1560000090517137920,0.011868676705312442,0.4348215789342369,-0.004372291139611212,0.24498169119790703,9.952709763313262,-0.9342471133563335
1560000090527160832,0.003383122624902535,0.436947995375192,-0.0022572601801462006,0.24498169119790703,9.937669143602843,-1.0393254971047596
1560000090537183744,-0.004041737717061705,0.4337583558418423,-0.0022572601801462006,0.24498169119790703,9.889039183321842,-0.7935162859313553
1560000090547206400,-0.01358798692686547,0.4337583558418423,-0.007544837521026249,0.21018624644965828,9.78803279046813,-0.5182899734137802
1560000090557229312,-0.01358798692686547,0.4422640216056628,-0.001199744758196175,0.13749139992487797,9.629975264394243,-0.21101016624500957
1560000090567251968,-0.010405903625106183,0.44439043804661793,-0.003314775602096226,0.12864987776019277,9.557354931363408,-0.022493478242469556
1560000090577274880,-0.0029810433990542923,0.44439043804661793,-0.004372291139611212,0.13539741456762136,9.523624659120163,0.0675068984325196
1560000090587297792,0.009747288764771711,0.4401376051647077,-0.004372291139611212,0.15966257280949395,9.560150245880028,-0.05557516427363465
1560000090597297408,0.009747288764771711,0.4422640216056628,-0.005429806445996277,0.052498015962061564,9.662455836674173,-0.2948333814320479
1560000090607320320,0.015050760007071728,0.4422640216056628,-0.004372291139611212,-0.09093717710441282,9.793358726370691,-0.582184152664835
1560000090617342976,0.013990065573151966,0.436947995375192,-0.001199744758196175,0.07867505731390381,9.890619830979611,-0.7788326935474819
1560000090627366144,0.006565205463012425,0.4295055527037661,-0.003314775602096226,0.08656013359053948,9.924123907271854,-0.858292602104121
1560000090637388544,0.0023224281909827726,0.4337583558418423,-0.005429806445996277,-0.0830455450488709,9.887652781707512,-0.8091323527119529
1560000090647411200,-0.0008596547630394663,0.4156838904533089,-0.006487321983511263,-0.019070704171612843,9.808557650600088,-0.6522525916300177
1560000090657434112,-0.007223820786996293,0.4167470838018694,-0.00014222933624614964,0.03436941387181398,9.730162218007603,-0.446238002652654
1560000090667457024,-0.01358798692686547,0.41249425091995917,-0.003314775602096226,-0.026211066705579558,9.669369555683222,-0.15124238559369685
1560000090677479936,-0.008284515220916056,0.4146206673609143,-0.0022572601801462006,0.011468762308425376,9.575712781817021,0.04405795800018959
1560000090687502592,0.00020103955496794668,0.4018621984590176,0.0009152860857038758,0.08621537248838232,9.480059398296863,0.1683521085164893
1560000090697525504,0.007625899896932187,0.400798975366623,-0.008602353058541234,0.037760782985947525,9.552995969012835,0.008595102811361999
1560000090707548160,0.017172148874911253,0.39654614248471276,-0.003314775602096226,0.0065645274066706075,9.672125895606865,-0.20953756987278438
1560000090717570816,0.01611145444099149,0.3944197557875917,-0.003314775602096226,-0.005550631183157965,9.842333283404441,-0.4922198497858729
1560000090727593728,0.011868676705312442,0.38378770332665013,-0.003314775602096226,0.056515687731861705,9.874322082779697,-0.6566979917661916
1560000090737616896,0.010807983198691473,0.3944197557875917,-0.003314775602096226,0.10260756453585995,9.893159289133937,-0.7468411641708812
1560000090747639296,0.003383122624902535,0.3859140900237712,0.0009152860857038758,0.07837580543893535,9.929633993079655,-0.6853848710933927
1560000090757662208,-0.006163126353076531,0.3827245099780896,-0.001199744758196175,0.12767146879565286,9.84313388718744,-0.532763228100485
1560000090767685120,-0.006163126353076531,0.37209242777331397,-0.001199744758196175,0.2044117401921346,9.706235234327526,-0.33156525262980935
1560000090777707776,-0.007223820786996293,0.3805980935371345,-0.003314775602096226,0.18017997755482035,9.681918360800154,-0.07344869719421065
1560000090787730688,-0.0008596547630394663,0.3795348704447399,-0.00014222933624614964,0.15020865464067226,9.651842052534798,0.07986210620650207
1560000090797753344,0.003383122624902535,0.3763452606552242,0.0009152860857038758,0.11386263625869805,9.615368975108765,0.11673425689201435
1560000090807776512,0.007625899896932187,0.3731556211218745,-0.004372291139611212,0.16216946806114202,9.578895053429108,0.03552369168742031
1560000090817799168,0.017172148874911253,0.37847167709617935,-0.003314775602096226,0.19628114308204964,9.588894106672027,-0.08628674728946226
1560000090827821824,0.022475619189912477,0.37528203756282963,-0.003314775602096226,0.1599372832531772,9.722621783324565,-0.2706365277774317
1560000090837844736,0.023536315478429826,0.3805980935371345,-0.004372291139611212,0.22137855819308888,9.782758896707959,-0.5128623503060018
1560000090847867392,0.017172148874911253,0.37740845400378475,-0.007544837521026249,0.31903400258325937,9.816740125342669,-0.7743749913392375
1560000090857890048,0.013990065573151966,0.3827245099780896,-0.009659868133796379,0.27057190864812264,9.974793891633352,-0.9218657864379585
1560000090867912704,0.006565205463012425,0.3805980935371345,-0.006487321983511263,0.28500805665496665,10.018086600766738,-0.9417394647584356
1560000090877935872,-0.0008596547630394663,0.3848508669313766,-0.005429806445996277,0.3698219882988571,9.932974759461896,-0.8188227814482981
1560000090887958528,-0.01358798692686547,0.39229333934663657,-0.009659868133796379,0.34901797616740315,9.816072556513227,-0.5244835777821748
1560000090897981440,-0.012527292492945707,0.38910369981328685,-0.013889930283856322,0.3192470214258301,9.710987016189293,-0.23158974502219223
1560000090908004352,-0.016770070228624756,0.3986725589256679,-0.016004961358886294,0.30712921890999445,9.650185251868281,-0.01031211798716275
1560000090918027264,-0.008284515220916056,0.39654614248471276,-0.014947444896851625,0.29501335764489417,9.597556416086945,0.021134416837585907
1560000090928049664,-0.0019203490810468793,0.39760936557710735,-0.012832414746341336,0.273441711674497,9.556695188542323,-0.046418722890266224
1560000090938072320,0.007625899896932187,0.3997357820180625,-0.013889930283856322,0.12809090904987389,9.617470143700293,-0.19387356114217735
1560000090948095488,0.006565205463012425,0.3944197557875917,-0.01177489920882635,0.034001089383172776,9.6839722878511,-0.3529115953333569
1560000090958118144,0.009747288764771711,0.40611503134092786,-0.009659868133796379,-0.002345469267231781,9.756920133344698,-0.524984186422725
1560000090968141056,0.007625899896932187,0.4093046411304435,-0.005429806445996277,-0.017611348057821462,9.84044803901743,-0.632900734239466
1560000090978163968,0.00020103955496794668,0.41143105757139864,-0.004372291139611212,-0.006851832069100547,9.879644999293989,-0.6881322597386683
1560000090988186624,0.00020103955496794668,0.4146206673609143,-0.003314775602096226,0.06584020705500242,9.794539737223877,-0.6266786688779634
1560000090998209280,-0.005102432150981467,0.41993672333521914,-0.005429806445996277,0.14664218236672547,9.741988585146734,-0.4911790555764578
1560000091008232448,-0.004041737717061705,0.41355747401235377,-0.003314775602096226,0.2222441191231446,9.704673519727487,-0.3233474198251358
1560000091018255360,-0.0008596547630394663,0.4252527495656899,-0.004372291139611212,0.17378089125361873,9.6560400616483,-0.21272669930090743
1560000091028278016,0.0023224281909827726,0.42737916600664505,-0.004372291139611212,0.18779881745401772,9.630207260703742,-0.1597301776738668
1560000091038300672,0.006565205463012425,0.4295055527037661,-0.00014222933624614964,0.2726049323030566,9.630207260703742,-0.172020712676174
1560000091048323328,0.011868676705312442,0.43163196914472124,-0.003314775602096226,0.2521947155513556,9.672440742839697,-0.2697006727208878
1560000091058346240,0.009747288764771711,0.43056874605232665,-0.005429806445996277,0.21909732045614785,9.727589532423742,-0.3836096991676957
1560000091068369152,0.012929372066530997,0.43588477228279743,-0.001199744758196175,0.19486715664755433,9.800534169692401,-0.5065143047543978
1560000091078391808,0.007625899896932187,0.43269516249328177,-0.003314775602096226,0.1624858777154782,9.8329115647379,-0.5638085967835861
1560000091088414976,0.009747288764771711,0.42737916600664505,-0.0022572601801462006,0.12085926822319965,9.841624418646783,-0.5831798327706181
1560000091098396928,-0.0019203490810468793,0.43269516249328177,-0.003314775602096226,0.01227829615434882,9.8053036318823,-0.5342230804164053
1560000091108419584,0.00020103955496794668,0.42418952647329533,-0.004372291139611212,-0.0005944371753900599,9.763154298010654,-0.4563682460417252
1560000091118442240,-0.0008596547630394663,0.4231263331247348,-0.001199744758196175,0.09634124728113541,9.714516819317065,-0.3457369842391088
1560000091128465408,0.00020103955496794668,0.4231263331247348,-0.003314775602096226,0.09875979527849021,9.665880887704914,-0.2883777523697524
1560000091138488320,0.007625899896932187,0.42737916600664505,-0.004372291139611212,0.09633039225828213,9.646408434864403,-0.2785194721610338
1560000091148510976,0.004443817058822297,0.4146206673609143,-0.0022572601801462006,0.12056251274642722,9.707201522373634,-0.37685105067496216
1560000091158533632,0.012929372066530997,0.4231263331247348,0.0009152860857038758,0.09636660549585095,9.743688880591096,-0.4669823209244721
1560000091168556800,0.007625899896932187,0.42418952647329533,-0.003314775602096226,0.05268861942169594,9.770400664468292,-0.5513947462367501
1560000091178579456,0.010807983198691473,0.41887350024282455,-0.004372291139611212,0.07692110013164107,9.83119465569519,-0.612852923935226
1560000091188601856,0.005504511492742059,0.41355747401235377,-0.0022572601801462006,0.06731448996266726,9.835390460554004,-0.6342580623520473
1560000091198625024,0.004443817058822297,0.4156838904533089,-0.003314775602096226,0.018851833249470554,9.77459936032948,-0.6096759449834647
1560000091208647936,0.0012617339888877088,0.4167470838018694,0.0009152860857038758,0.04376626648795006,9.745364870844519,-0.5425548886203726
1560000091218670336,0.0023224281909827726,0.41887350024282455,-0.001199744758196175,0.0736937448635264,9.721048851526358,-0.4622960599771186
1560000091228693248,-0.004041737717061705,0.408241447781883,-0.00014222933624614964,0.08580973311015144,9.696731761023338,-0.36396506578041204
1560000091238715904,-0.0019203490810468793,0.41143105757139864,0.0030303169296039267,0.13013555124157036,9.656254386757292,-0.2738075102665911
1560000091248739072,0.006565205463012425,0.41993672333521914,0.0019728016232188617,0.1860359500183637,9.61779467478671,-0.19647104302791568
1560000091258761728,0.004443817058822297,0.4156838904533089,0.0030303169296039267,0.17392096206695556,9.727211260567477,-0.24563244271799697
1560000091268784640,0.008686594330851949,0.40611503134092786,-0.004372291139611212,0.1224615097259626,9.780219748259142,-0.4031312522283713
1560000091278807552,0.013990065573151966,0.41355747401235377,0.0009152860857038758,0.025550027860131275,9.768063262936149,-0.685784970576617
1560000091288829696,0.010807983198691473,0.3997357820180625,-0.001199744758196175,0.09600327890236596,9.860879491052108,-0.8304983379440999
1560000091298852608,0.004443817058822297,0.4018621984590176,-0.00014222933624614964,0.1706146887670515,9.925519608179993,-0.8919674334010497
1560000091308875776,-0.004041737717061705,0.39760936557710735,0.0009152860857038758,0.18272971287088222,9.86473236731777,-0.7813539588053836
1560000091318898432,-0.005102432150981467,0.4018621984590176,-0.001199744758196175,0.1306164412595509,9.779777384315445,-0.5648635833210054
1560000091328921344,-0.008284515220916056,0.40398861489997273,-0.0022572601801462006,0.05562470914922636,9.684032227276182,-0.29753747406708736
1560000091338944512,-0.009345209654835818,0.39760936557710735,-0.0022572601801462006,0.12832993076076127,9.611072235056437,-0.07626444283346931
1560000091348966912,-0.0019203490810468793,0.3997357820180625,-0.001199744758196175,0.15062923367184622,9.566219044804479,0.05408578681031216
1560000091358989824,0.006565205463012425,0.39654614248471276,-0.00014222933624614964,0.11428505185623927,9.554061764562135,0.07866596573035531
1560000091369012480,0.012929372066530997,0.39548294913615223,-0.001199744758196175,0.19277247717007384,9.636185321932434,-0.16150666598251806
1560000091379035392,0.01611145444099149,0.3986725589256679,-0.0022572601801462006,0.25487729822569904,9.746139410542435,-0.45379412083139375
1560000091389058048,0.019293537742750777,0.3933565326951971,-0.004372291139611212,0.2185355990531486,9.892015586032123,-0.7733147324195166
1560000091399081216,0.009747288764771711,0.3944197557875917,-0.005429806445996277,0.1981996290019246,9.965612273086565,-0.9223352646976055
1560000091409103616,0.006565205463012425,0.3933565326951971,-0.003314775602096226,0.18973942386465736,9.993283009143655,-0.9659901107001246
1560000091419126784,-0.004041737717061705,0.3869772833723317,-0.007544837521026249,0.23820524539860521,9.883851265847914,-0.732445009770294
1560000091429149440,-0.007223820786996293,0.39760936557710735,-0.005429806445996277,0.23092218926513586,9.768830545792094,-0.470632469384229
1560000091439172352,-0.010405903625106183,0.400798975366623,-0.007544837521026249,0.15822409613920624,9.647242691219095,-0.1756307189018002
1560000091449195264,-0.006163126353076531,0.4018621984590176,-0.005429806445996277,0.13761945215329713,9.536106864271346,0.17222798311424747
1560000091459217920,0.0023224281909827726,0.41143105757139864,-0.005429806445996277,0.13809099888501394,9.429832995351573,0.45207399321835956
1560000091469240320,0.010807983198691473,0.4146206673609143,-0.004372291139611212,0.1744383208672567,9.33256697551041,0.5135297762251553
1560000091479262976,0.027779093214108874,0.40505180824853326,-0.00014222933624614964,0.21877721154291946,9.427738982112675,0.3074889654980125
1560000091489286144,0.03732533941019156,0.4156838904533089,-0.005429806445996277,0.2650887719029005,9.62228678790191,-0.0505382587829306
1560000091499309056,0.04368950601371013,0.408241447781883,-0.007544837521026249,0.27720367373493243,9.81680434408103,-0.6281813028465592
1560000091509331968,0.03944673198722626,0.4093046411304435,-0.007544837521026249,0.26707712853723153,10.028078528057412,-1.1212551164099218
1560000091519354880,0.030961172806672987,0.41355747401235377,-0.006487321983511263,0.23072592049558843,10.259110280585746,-1.5146142147447157
1560000091529377280,0.012929372066530997,0.41993672333521914,-0.007544837521026249,0.2880151366832213,10.22909166420953,-1.4329517669231
1560000091539400192,-0.0029810433990542923,0.42206313977617427,-0.005429806445996277,0.33566433009246605,10.115309324486715,-1.1715549933914369
1560000091549422848,-0.017830763735245725,0.4295055527037661,-0.009659868133796379,0.31143256273463227,9.884300845012703,-0.6184480683629321
1560000091559445760,-0.024194930338764298,0.43801118872375255,-0.01177489920882635,0.28720035990819104,9.645285728019315,-0.02488583355112256
1560000091569468672,-0.022073541470924773,0.43588477228279743,-0.01177489920882635,0.26157012691303166,9.4098615869078,0.5612287182300107
1560000091579491584,-0.009345209654835818,0.43801118872375255,-0.008602353058541234,0.2131464878912953,9.300526905711358,0.6840401692942255
1560000091589527296,0.004443817058822297,0.436947995375192,-0.01177489920882635,0.1369311413002594,9.346756801800886,0.5427697464981461
1560000091599549952,0.023536315478429826,0.43801118872375255,-0.007544837521026249,0.027902800534522793,9.577734986150695,0.08805381565724968
1560000091609572608,0.030961172806672987,0.43588477228279743,-0.003314775602096226,-0.02921365899365779,9.798299135592595,-0.5141388974158831
1560000091619595776,0.022475619189912477,0.43588477228279743,-0.008602353058541234,-0.07145601596226724,10.00778006867601,-1.0526383851443066
1560000091629618432,0.01611145444099149,0.4295055527037661,-0.0022572601801462006,-0.09568741839916471,10.190153302803171,-1.335333284277108
1560000091639641344,-0.0019203490810468793,0.41993672333521914,-0.006487321983511263,-0.1358255045144188,10.149069428147158,-1.22270268578028
1560000091649664512,-0.017830763735245725,0.4252527495656899,-0.005429806445996277,-0.1747603084154813,9.985537362081724,-0.8851565800985688
1560000091659687168,-0.02525562477268406,0.42206313977617427,0.0030303169296039267,-0.05359430720790481,9.730195613743188,-0.2459728005178614
1560000091669709568,-0.029498400653765522,0.4231263331247348,-0.00014222933624614964,0.03994590094006513,9.508119689071858,0.3147440031155988
1560000091679732224,-0.018891458169165487,0.41993672333521914,0.0009152860857038758,0.1005357482116962,9.32571289714619,0.7818925935865167
1560000091689755136,-0.0029810433990542923,0.42206313977617427,0.0009152860857038758,0.13000297355982438,9.257815475857667,0.8281242853325342
1560000091699778048,0.010807983198691473,0.4146206673609143,0.0030303169296039267,0.17901387884682962,9.296219386096357,0.6904174268147251
1560000091709800960,0.02883978579343105,0.41993672333521914,0.0019728016232188617,0.3001575613993932,9.587984226185055,0.22340768964012436
1560000091719823872,0.03838603569870891,0.4146206673609143,-0.0022572601801462006,0.30223552328480824,9.80806297344327,-0.32413890901970555
1560000091729846528,0.03414325796302986,0.4071782246894884,-0.0022572601801462006,0.24763650887539354,9.99308121400434,-0.9005846542095259
1560000091739869440,0.024597009912349588,0.39548294913615223,-0.006487321983511263,0.2960975945653003,10.224078626155945,-1.2447226573546235
1560000091749892096,0.011868676705312442,0.400798975366623,-0.005429806445996277,0.28950435972954386,10.267233449184562,-1.3766221940021337
1560000091759915008,-0.007223820786996293,0.39654614248471276,-0.009659868133796379,0.21681101148804674,10.084862988438159,-1.2537128954069612
1560000091769937920,-0.023134235904844536,0.3848508669313766,-0.01177489920882635,0.10273246507225123,9.933651080015446,-0.7844093077656845
1560000091779960576,-0.03268048395552481,0.3859140900237712,-0.014947444896851625,0.021538146006438785,9.74766939418392,-0.2247534289578898
1560000091789983488,-0.03268048395552481,0.3805980935371345,-0.013889930283856322,0.05788503016765203,9.443717224678391,0.4266700111004008
1560000091800006144,-0.023134235904844536,0.3859140900237712,-0.008602353058541234,-0.0007498606594817797,9.306587446434033,0.7247382462911617
1560000091810029056,-0.004041737717061705,0.3827245099780896,-0.008602353058541234,-0.10145127520213869,9.266959849839694,0.8119498391854456
1560000091820051712,0.009747288764771711,0.381661286885695,-0.008602353058541234,-0.052993517254516544,9.388529154084685,0.4801251639819974
1560000091830074880,0.024597009912349588,0.3859140900237712,-0.006487321983511263,-0.004535083200379476,9.587103583428444,0.04820914471802312
1560000091840097280,0.030961172806672987,0.3827245099780896,-0.003314775602096226,0.04391792118650033,9.878840928486106,-0.504777722561339
1560000091850120192,0.027779093214108874,0.3763452606552242,-0.005429806445996277,0.13366830967821436,10.046350392972736,-0.9008234482511557
1560000091860142592,0.012929372066530997,0.3795348704447399,-0.007544837521026249,0.21535060954253618,10.143298682338779,-1.1613070692017164
1560000091870165760,-0.0019203490810468793,0.37528203756282963,-0.005429806445996277,0.2516967386969062,10.094667565275735,-1.0998532950383728
1560000091880188416,-0.014648681360785232,0.3795348704447399,-0.003314775602096226,0.2564792414260783,9.982685013962355,-0.7742228257936608
1560000091890211584,-0.02525562477268406,0.37209242777331397,-0.008602353058541234,0.24683887786356087,9.831184533503432,-0.3039865780478591
1560000091900234240,-0.027377013640523584,0.37528203756282963,-0.005429806445996277,0.28318543887415504,9.575866771112178,0.2245220884268596
1560000091910257152,-0.02525562477268406,0.3742188442142691,-0.013889930283856322,0.2485349315581345,9.413720021795331,0.5812720802904209
1560000091920279808,-0.010405903625106183,0.381661286885695,-0.01177489920882635,0.12739053668907913,9.365092057588036,0.7287496839204186
1560000091930302720,0.0023224281909827726,0.3742188442142691,-0.009659868133796379,0.06805282383712244,9.471535541857492,0.5208926540418097
1560000091940325376,0.009747288764771711,0.3689028179837983,-0.005429806445996277,0.03170669674789384,9.611344141522732,0.20442505016471685
1560000091950348288,0.0214149266105903,0.3742188442142691,-0.009659868133796379,0.03170669674789384,9.76937991903058,-0.2502882141373778
1560000091960370944,0.019293537742750777,0.37209242777331397,-0.005429806445996277,0.055315304149738384,9.91164165159546,-0.59328818044139
1560000091970393856,0.012929372066530997,0.3689028179837983,-0.006487321983511263,0.09166573065121252,10.036997397387026,-0.8553926723969864
1560000091980416768,0.005504511492742059,0.36996601133235885,-0.003314775602096226,0.12801153311794014,10.00052393031634,-0.7201956216236286
1560000091990439424,-0.005102432150981467,0.3657131784504486,-0.006487321983511263,0.1208382747728554,9.903998973383581,-0.5077305059430419
1560000092000462336,-0.008284515220916056,0.36146034556853834,-0.008602353058541234,0.06025383184033996,9.733767900305752,-0.2004232836275749
1560000092010485248,-0.007223820786996293,0.3678395948914037,-0.006487321983511263,0.05109533295035362,9.646107241513342,0.012974775250053444
1560000092020507904,-0.005102432150981467,0.35614431933806756,-0.0022572601801462006,0.03603279874230264,9.579201582262893,0.16990919840999813
1560000092030530560,0.0012617339888877088,0.35720754243046215,-0.001199744758196175,-0.02454299892707909,9.530571333113077,0.20678080102263618
1560000092040553472,0.010807983198691473,0.3603971522199778,-0.003314775602096226,-0.05370261203682709,9.576526258952464,0.12412712240591911
1560000092050576384,0.012929372066530997,0.3497650700152022,-0.004372291139611212,-0.0663995509431387,9.671455019058904,-0.029261797274723708
1560000092060599040,0.012929372066530997,0.34125943399521574,-0.003314775602096226,-0.09062807216216641,9.72008165424273,-0.29963343480522586
1560000092070621952,0.01611145444099149,0.33594340776474496,-0.0022572601801462006,-0.04426131402174071,9.796006528729047,-0.4765607301267943
1560000092080644608,0.010807983198691473,0.3327537979752293,-0.001199744758196175,0.08924953874849073,9.905625762890386,-0.5381259666040018
1560000092090638336,0.006565205463012425,0.33594340776474496,-0.00014222933624614964,-0.03442924260387242,9.942655705089292,-0.5785904026280998
1560000092100660992,0.0012617339888877088,0.3199953290733326,-0.0022572601801462006,-0.14723107677709632,9.92796760703137,-0.5820977960548216
1560000092110684160,-0.0019203490810468793,0.3040472206380862,-0.004372291139611212,-0.0866469892501531,9.794215069587215,-0.4837600679245774
1560000092120706816,-0.005102432150981467,0.3040472206380862,0.0019728016232188617,-0.12008523744809897,9.715494876725206,-0.2502833544107868
1560000092130729472,-0.009345209654835818,0.28597272550571873,0.0009152860857038758,-0.19700040649455589,9.664015931302838,0.05075268183459241
1560000092140752640,-0.005102432150981467,0.2774670597418982,-0.001199744758196175,-0.11218016594848138,9.55457889361802,0.22284880827360926
1560000092150775296,-0.0008596547630394663,0.2774670597418982,-0.001199744758196175,-0.043595363632247745,9.515728195646032,0.30162945547819964
1560000092160797952,0.008686594330851949,0.26470859084000153,0.0030303169296039267,0.004870315892297333,9.56436411162318,0.26475399685698636
1560000092170820352,0.01611145444099149,0.2551397317276205,-0.001199744758196175,0.022571020589595148,9.664437749387263,0.01985565236625972
1560000092180843520,0.02035423217667054,0.2530133152866654,-0.0022572601801462006,0.040646983506311095,9.7888144531104,-0.2960964701699498
1560000092190866432,0.018232843308831015,0.24238124795380678,-0.004372291139611212,0.07699873077752717,9.959051194032016,-0.7140466823491676
1560000092200889088,0.011868676705312442,0.23919163816429112,-0.003314775602096226,0.027277488441208836,10.035043828319711,-0.8779379351144296
1560000092210912256,0.003383122624902535,0.23281240371334277,-0.005429806445996277,-0.06468507251229838,10.051060131561881,-0.8946885366949527
1560000092220934912,-0.005102432150981467,0.22005391993952905,-0.003314775602096226,-0.05256793270274948,9.892985217811203,-0.7471780457676318
1560000092230957568,-0.01358798692686547,0.2094218674785875,-0.004372291139611212,-0.09442061409869447,9.789069843093868,-0.5065918439236272
1560000092240980480,-0.014648681360785232,0.20516903459667724,-0.003314775602096226,-0.20347586889523814,9.752589805108132,-0.15010487823859464
1560000092251003392,-0.016770070228624756,0.19453696726381864,-0.006487321983511263,-0.17937789283933844,9.57222350557097,0.11284357317289859
1560000092261026048,-0.012527292492945707,0.17752568035192873,-0.007544837521026249,-0.16951730064243622,9.428104180032511,0.3074636542598228
1560000092271048448,-0.004041737717061705,0.1722096392495409,-0.00014222933624614964,-0.27856247551263946,9.476738939058423,0.34433821653177143
1560000092281071360,0.006565205463012425,0.1626407950090769,-0.005429806445996277,-0.2938473640631082,9.54889933190807,0.19889582213721663
1560000092291094528,0.010807983198691473,0.1498823112352632,-0.0022572601801462006,-0.2607491323465246,9.63727922979522,-0.04915075345460849
1560000092301117440,0.0214149266105903,0.14031346699479919,-0.00014222933624614964,-0.2970954585411829,9.795332663413877,-0.3441305887752291
1560000092311140096,0.018232843308831015,0.1371238423333665,0.0009152860857038758,-0.2580595938418567,9.888547266309923,-0.5462521733150386
1560000092321163008,0.008686594330851949,0.12011253311360104,0.0030303169296039267,-0.12477977847426167,9.900706173040978,-0.6322943668018516
1560000092331185664,0.005504511492742059,0.11904933232908199,-0.0022572601801462006,-0.09378521772191191,9.871807210316522,-0.47967464950504235
1560000092341208576,-0.0029810433990542923,0.10416444698623017,0.004087832467118913,-0.07575461986908588,9.82939429999583,-0.26499955092477573
