#timestamp [ns],w_RS_S_x [rad s^-1],w_RS_S_y [rad s^-1],w_RS_S_z [rad s^-1],a_RS_S_x [m s^-2],a_RS_S_y [m s^-2],a_RS_S_z [m s^-2]
1560244286291849728,-0.0019203490810468793,0.006349468235803957,0.0019728016232188617,0.07961150704858547,9.727490951408186,-0.2916529958630001
1560244286301872128,0.004443817058822297,-0.0064090067078090285,0.0030303169296039267,0.0734663266039183,9.73048363503685,-0.2946785255695013
1560244286311894784,0.0012617339888877088,0.0020966432545996283,0.0009152860857038758,0.08557608633825112,9.742635323859583,-0.3069635847602576
1560244286321917696,-0.0008596547630394663,-0.005345800578694798,-0.00014222933624614964,0.08205884438481796,9.75478792578041,-0.3192491655584388
1560244286331940096,0.003383122624902535,0.003159849616087562,-0.001199744758196175,0.07101894132939016,9.766403457375873,-0.3320770213363018
1560244286341962240,0.0012617339888877088,-0.0021561817266047,0.0009152860857038758,0.08312884462210952,9.766403457375873,-0.3566474405638349
1560244286351985408,-0.0019203490810468793,-0.004282594217206864,-0.001199744758196175,0.0898726053552732,9.766403457375873,-0.3648852156662745
1560244286362008064,-0.0008596547630394663,-0.003219387971905782,-0.00014222933624614964,0.0898726053552732,9.766403457375873,-0.3525994167568169
1560244286372030464,-0.0008596547630394663,-0.0021561817266047,-0.001199744758196175,0.0898726053552732,9.756169215426327,-0.34031484051920763
1560244286382052864,-0.0008596547630394663,-0.0064090067078090285,-0.00014222933624614964,0.0898726053552732,9.746946719234984,-0.3280303089164303
1560244286392075776,0.00020103955496794668,-0.005345800578694798,0.0009152860857038758,0.0898726053552732,9.746946719234984,-0.31574478452938254
1560244286402098432,0.0023224281909827726,0.001033437125485398,0.0019728016232188617,0.0898726053552732,9.746946719234984,-0.3191845797154029
1560244286412120832,-0.0008596547630394663,-0.007472213069296962,0.0009152860857038758,0.0898726053552732,9.747418763885538,-0.33146878992981793
1560244286422143488,0.0023224281909827726,-0.007472213069296962,0.008317894154919014,0.0898726053552732,9.759570517112694,-0.3437533015685741
1560244286432166400,0.0012617339888877088,-0.0021561817266047,0.0030303169296039267,0.09517277411926774,9.766403457375873,-0.3614146798032396
1560244286442188800,0.00020103955496794668,-0.001092975481303618,-0.0022572601801462006,0.10728098532148712,9.766403457375873,-0.3859816586806992
1560244286452211200,-0.0008596547630394663,-0.005345800578694798,-0.001199744758196175,0.09913253045564517,9.766403457375873,-0.38999949962516567
1560244286462233856,-0.0019203490810468793,0.003159849616087562,0.0019728016232188617,0.09272203664430542,9.76354401727589,-0.38421814042013325
1560244286472256512,0.00020103955496794668,-0.004282594217206864,-0.001199744758196175,0.10483125546035242,9.751392264048734,-0.35964911714262093
1560244286482278912,0.00020103955496794668,-0.004282594217206864,0.0030303169296039267,0.10158252127933469,9.746946719234984,-0.35845077343179477
1560244286492301568,0.0023224281909827726,-0.003219387971905782,-0.001199744758196175,0.0898726053552732,9.746946719234984,-0.36992546256775627
1560244286502324224,-0.0019203490810468793,-0.001092975481303618,-0.004372291139611212,0.0898726053552732,9.746946719234984,-0.35764039380413465
1560244286512346624,0.00020103955496794668,-0.0021561817266047,-0.00014222933624614964,0.08464267161698247,9.752195022941214,-0.36127217527644584
1560244286522369280,0.004443817058822297,-0.003219387971905782,-0.001199744758196175,0.07253273195902236,9.764347498358593,-0.3858426587143194
1560244286532391680,0.00020103955496794668,-0.004282594217206864,-0.00014222933624614964,0.080545007417566,9.766403457375873,-0.40020617234217754
1560244286542414592,0.0023224281909827726,-0.005345800578694798,-0.00014222933624614964,0.08708983697676102,9.769196000135564,-0.40684573890991005
1560244286552436992,-0.0008596547630394663,0.0020966432545996283,0.0030303169296039267,0.07498018539006164,9.781348186469842,-0.3945607990050996
1560244286562459648,0.00020103955496794668,-0.001092975481303618,0.0009152860857038758,0.07809769257352528,9.770579262775845,-0.39772343239116087
1560244286572482304,0.0012617339888877088,-0.0064090067078090285,-0.003314775602096226,0.0898726053552732,9.746946719234984,-0.40898901507433183
1560244286582504960,-0.0008596547630394663,-2.9769236002535893e-05,-0.001199744758196175,0.0898726053552732,9.746946719234984,-0.3844178206377759
1560244286592527360,0.0023224281909827726,-0.007472213069296962,0.0030303169296039267,0.08470581699398949,9.746946719234984,-0.3703302111342346
1560244286602550016,-0.0029810433990542923,0.001033437125485398,0.0019728016232188617,0.072595337533067,9.746946719234984,-0.3703302111342346
1560244286612572416,-0.004041737717061705,-0.004282594217206864,0.0009152860857038758,0.08048264358508202,9.746946719234984,-0.3703302111342346
1560244286622595328,-0.0008596547630394663,-0.004282594217206864,0.0019728016232188617,0.0898726053552732,9.746946719234984,-0.3730900952531594
1560244286632617728,-0.0008596547630394663,0.0020966432545996283,-0.001199744758196175,0.0898726053552732,9.746946719234984,-0.38537485263427357
1560244286642640128,-0.0008596547630394663,-2.9769236002535893e-05,-0.00014222933624614964,0.0898726053552732,9.762102062091884,-0.3976599514612545
1560244286652663040,0.00020103955496794668,-0.005345800578694798,0.0019728016232188617,0.0898726053552732,9.785312085812805,-0.40939173941929713
1560244286662685952,-0.0008596547630394663,-0.0064090067078090285,0.0009152860857038758,0.0898726053552732,9.761006195681317,-0.3971060324944449
1560244286672708096,0.0012617339888877088,-0.0064090067078090285,-0.00014222933624614964,0.09497686368898281,9.746946719234984,-0.3848213561792499
1560244286682730496,0.0012617339888877088,-0.004282594217206864,0.0019728016232188617,0.10708633417682926,9.746946719234984,-0.3725365987981357
1560244286692753408,0.0023224281909827726,-0.007472213069296962,0.0019728016232188617,0.09932550805865843,9.736976584965891,-0.36025064220640063
1560244286702776320,0.00020103955496794668,-0.004282594217206864,-0.001199744758196175,0.0898726053552732,9.727490951408186,-0.3506608919895484
1560244286712798720,0.0012617339888877088,-0.001092975481303618,-0.001199744758196175,0.0898726053552732,9.727490951408186,-0.3506608919895484
1560244286722821120,0.00020103955496794668,-0.001092975481303618,0.0019728016232188617,0.0898726053552732,9.735005738479071,-0.3506608919895484
1560244286732843520,0.0023224281909827726,0.001033437125485398,-0.003314775602096226,0.0898726053552732,9.747158331209297,-0.35108873967749077
1560244286742866176,0.004443817058822297,-0.001092975481303618,0.0009152860857038758,0.0898726053552732,9.759310987187643,-0.37565958818257333
1560244286752888832,0.00020103955496794668,-0.003219387971905782,-0.00014222933624614964,0.08479793561697967,9.761310963029265,-0.3848513735766698
1560244286762910976,-0.0008596547630394663,-0.0064090067078090285,-0.001199744758196175,0.07261107449272769,9.749081295961508,-0.37248810651916453
1560244286772832512,0.00020103955496794668,0.003159849616087562,0.0019728016232188617,0.08035848653703521,9.746946719234984,-0.360312743592842
1560244286782854912,0.00020103955496794668,-0.004282594217206864,0.0030303169296039267,0.0898726053552732,9.746946719234984,-0.3506608919895484
1560244286792877312,-0.0008596547630394663,-0.008535419430784896,-0.00014222933624614964,0.0898726053552732,9.746946719234984,-0.3506608919895484
1560244286802899712,-0.0019203490810468793,-0.004282594217206864,0.0019728016232188617,0.0898726053552732,9.746946719234984,-0.3431226191720959
1560244286812922624,0.0023224281909827726,-0.0021561817266047,-0.001199744758196175,0.0898726053552732,9.747100795949576,-0.3309915881717398
1560244286822945024,0.0023224281909827726,-0.003219387971905782,0.0019728016232188617,0.0898726053552732,9.759252621186603,-0.3309915881717398
1560244286832967680,0.004443817058822297,0.0020966432545996283,0.0030303169296039267,0.0898726053552732,9.761401882014068,-0.3360478059532935
1560244286842990080,0.00020103955496794668,0.0020966432545996283,0.0019728016232188617,0.0898726053552732,9.749249334561078,-0.3483331204948328
1560244286853012992,0.003383122624902535,0.0020966432545996283,-0.001199744758196175,0.0898726053552732,9.746946719234984,-0.37057773893946033
1560244286863035392,-0.0019203490810468793,-2.9769236002535893e-05,-0.004372291139611212,0.0898726053552732,9.749493768418795,-0.38742462582904535
1560244286873058048,0.007625899896932187,0.001033437125485398,0.0019728016232188617,0.0898726053552732,9.761647327282471,-0.3751382984009742
1560244286883080448,0.004443817058822297,0.001033437125485398,-0.003314775602096226,0.0898726053552732,9.759005987956103,-0.3703302111342346
1560244286893103360,-0.0019203490810468793,-0.003219387971905782,0.0019728016232188617,0.0898726053552732,9.747041837468043,-0.37023405365557843
1560244286903125760,0.0023224281909827726,0.0020966432545996283,0.0009152860857038758,0.0898726053552732,9.759195287811716,-0.35794781678546084
1560244286913148416,-0.0008596547630394663,0.006349468235803957,0.0009152860857038758,0.0898726053552732,9.766403457375873,-0.34566106865783824
1560244286923171072,0.0023224281909827726,-0.003219387971905782,0.0019728016232188617,0.0898726053552732,9.766403457375873,-0.33337400135873674
1560244286933193984,-0.0008596547630394663,-0.001092975481303618,0.0019728016232188617,0.0898726053552732,9.75660540788976,-0.3508017830621167
1560244286943216128,0.00020103955496794668,-0.0021561817266047,0.007260378617404029,0.0898726053552732,9.746946719234984,-0.3728526642456076
1560244286953238784,0.00020103955496794668,-0.0021561817266047,0.0009152860857038758,0.0898726053552732,9.746946719234984,-0.38513990455799446
1560244286963261440,-0.0008596547630394663,-0.003219387971905782,-0.00014222933624614964,0.0898726053552732,9.746946719234984,-0.38257218549330924
1560244286973284352,-0.0008596547630394663,-0.003219387971905782,-0.001199744758196175,0.0898726053552732,9.746991245971401,-0.3703302111342346
1560244286983306496,0.003383122624902535,-0.003219387971905782,-0.001199744758196175,0.0898726053552732,9.75914531020528,-0.3703302111342346
1560244286993329152,0.0012617339888877088,-0.005345800578694798,0.0019728016232188617,0.0898726053552732,9.761506670970725,-0.3703302111342346
1560244287003351808,-0.0029810433990542923,-0.003219387971905782,0.0009152860857038758,0.0898726053552732,9.749351305933844,-0.3703302111342346
1560244287013374464,0.0023224281909827726,-0.003219387971905782,0.0009152860857038758,0.08015537946237336,9.746946719234984,-0.3703302111342346
1560244287023396864,0.00020103955496794668,-0.0064090067078090285,-0.00014222933624614964,0.07292530476297586,9.746946719234984,-0.3728068853014138
1560244287033419264,-0.0019203490810468793,-0.001092975481303618,-0.001199744758196175,0.0850374757820245,9.746946719234984,-0.3850943811075881
1560244287043442176,0.003383122624902535,-0.001092975481303618,0.0019728016232188617,0.09714978977464217,9.746946719234984,-0.38999949962516567
1560244287053464832,-0.0019203490810468793,-0.008535419430784896,-0.00014222933624614964,0.10926095153376249,9.746946719234984,-0.38999949962516567
1560244287063487232,-0.0029810433990542923,-0.003219387971905782,-0.00014222933624614964,0.09714860169493067,9.746946719234984,-0.38999949962516567
1560244287073509888,-0.0008596547630394663,-0.003219387971905782,0.0009152860857038758,0.0898726053552732,9.751799917143224,-0.38509328415011856
1560244287083532288,-0.0008596547630394663,-0.007472213069296962,0.0019728016232188617,0.0898726053552732,9.763953728680738,-0.3728067012879385
1560244287093555200,-0.0008596547630394663,-0.005345800578694798,0.0019728016232188617,0.0898726053552732,9.756699084698571,-0.3703302111342346
1560244287103577600,0.00020103955496794668,-0.001092975481303618,0.0019728016232188617,0.0898726053552732,9.746946719234984,-0.3703302111342346
1560244287113600256,0.00020103955496794668,0.003159849616087562,0.0030303169296039267,0.0898726053552732,9.746946719234984,-0.3703302111342346
1560244287123622912,0.003383122624902535,-2.9769236002535893e-05,0.0030303169296039267,0.0898726053552732,9.746946719234984,-0.3703302111342346
1560244287133645312,0.004443817058822297,-0.004282594217206864,-0.00014222933624614964,0.0898726053552732,9.746946719234984,-0.3703302111342346
1560244287143668224,-0.0008596547630394663,-0.004282594217206864,-0.0022572601801462006,0.0898726053552732,9.746946719234984,-0.35809654402561186
1560244287153690624,0.00020103955496794668,-0.005345800578694798,0.0019728016232188617,0.0898726053552732,9.746946719234984,-0.35551064091170975
1560244287163713792,0.00020103955496794668,-0.004282594217206864,-0.00014222933624614964,0.0898726053552732,9.746946719234984,-0.3677964766868023
1560244287173735936,0.00020103955496794668,-0.003219387971905782,-0.00014222933624614964,0.08026024839874546,9.746946719234984,-0.3703302111342346
1560244287183758592,-0.0019203490810468793,-0.003219387971905782,0.0009152860857038758,0.07515252114072449,9.746946719234984,-0.36796214247517434
1560244287193780992,-0.0019203490810468793,-0.008535419430784896,-0.001199744758196175,0.09937218298396999,9.746946719234984,-0.3556770008953994
1560244287203803904,-0.0019203490810468793,-0.003219387971905782,0.0019728016232188617,0.09492756548694782,9.754138729952787,-0.3579314813903073
1560244287213826048,-0.0008596547630394663,-0.0021561817266047,0.0009152860857038758,0.07070524074622,9.766292432969214,-0.37021797369383697
1560244287223848704,0.003383122624902535,-0.001092975481303618,0.0030303169296039267,0.08248518231575716,9.7543600903517,-0.35815526033519895
1560244287233871616,0.005504511492742059,0.001033437125485398,-0.00014222933624614964,0.09459709938127733,9.746946719234984,-0.3458680062773198
1560244287243894016,0.00020103955496794668,-2.9769236002535893e-05,0.0030303169296039267,0.10670854927584592,9.746946719234984,-0.3335812312629915
1560244287253916672,-0.0008596547630394663,-0.003219387971905782,0.0019728016232188617,0.09970290223581074,9.756538630944322,-0.35038500321854
1560244287263939072,-0.0008596547630394663,-0.0021561817266047,0.0009152860857038758,0.0898726053552732,9.766403457375873,-0.36801701596870917
1560244287273962240,0.0023224281909827726,0.001033437125485398,0.0009152860857038758,0.0898726053552732,9.766403457375873,-0.3557306325500499
1560244287283984640,-0.0008596547630394663,0.001033437125485398,-0.0022572601801462006,0.0898726053552732,9.759265041055459,-0.3578773014296682
1560244287294007552,0.0012617339888877088,-0.001092975481303618,-0.0022572601801462006,0.0898726053552732,9.74711065127442,-0.3701644880012841
1560244287304030208,-0.0008596547630394663,-0.0021561817266047,0.0019728016232188617,0.0898726053552732,9.746946719234984,-0.3582095803039209
1560244287314052608,0.00020103955496794668,-0.001092975481303618,0.0019728016232188617,0.08520311953434886,9.746946719234984,-0.3553979764288189
1560244287324075264,0.0012617339888877088,-0.00959862579227283,-0.00014222933624614964,0.07309282001309417,9.746946719234984,-0.367683592793681
1560244287334097664,0.0023224281909827726,-0.005345800578694798,-0.00014222933624614964,0.08948600705399759,9.746946719234984,-0.3703302111342346
1560244287344120320,-0.0019203490810468793,-0.004282594217206864,-0.003314775602096226,0.10703857196639156,9.746946719234984,-0.3703302111342346
1560244287354143232,0.0012617339888877088,0.0020966432545996283,-0.001199744758196175,0.09492726573712187,9.746946719234984,-0.3703302111342346
1560244287364165632,0.0023224281909827726,-0.0064090067078090285,-0.001199744758196175,0.08281622046061905,9.754027889446387,-0.3703302111342346
1560244287374188288,-0.0019203490810468793,-0.005345800578694798,-0.00014222933624614964,0.07070466124938801,9.766181990105665,-0.3703302111342346
1560244287384210688,0.003383122624902535,-0.0021561817266047,-0.001199744758196175,0.0823745481576832,9.754471113108567,-0.3582674961077792
1560244287394233344,0.0012617339888877088,-0.003219387971905782,-0.00014222933624614964,0.0898726053552732,9.746946719234984,-0.36002232781854915
1560244287404256000,-0.0008596547630394663,-0.005345800578694798,0.0030303169296039267,0.0898726053552732,9.746946719234984,-0.3845968275924677
1560244287414278400,0.0012617339888877088,-0.004282594217206864,0.0030303169296039267,0.0898726053552732,9.746946719234984,-0.38041374306712716
1560244287424300800,0.0023224281909827726,0.003159849616087562,0.0009152860857038758,0.09204485849976383,9.74912660255857,-0.3703302111342346
1560244287434323712,-0.0008596547630394663,-0.0064090067078090285,-0.004372291139611212,0.10415778460949218,9.761282076101516,-0.3703302111342346
1560244287444346368,0.0023224281909827726,-0.005345800578694798,0.0009152860857038758,0.10225153589688639,9.759369131567516,-0.3703302111342346
1560244287454368512,0.00020103955496794668,-0.005345800578694798,-0.0022572601801462006,0.09013857413690007,9.747213622249088,-0.3703302111342346
1560244287464391424,0.0023224281909827726,-0.001092975481303618,0.0009152860857038758,0.1017195824462504,9.746946719234984,-0.38234867547653095
1560244287474414080,-0.0008596547630394663,-2.9769236002535893e-05,-0.001199744758196175,0.10469025891789101,9.751533755850634,-0.38072519926060283
1560244287484436736,-0.0008596547630394663,-0.001092975481303618,0.0019728016232188617,0.09257762094361092,9.763688940246036,-0.3561492386752844
1560244287494459136,0.0023224281909827726,-0.001092975481303618,-0.00014222933624614964,0.0898726053552732,9.756963219549688,-0.3506608919895484
1560244287504481792,0.00020103955496794668,-0.003219387971905782,0.0009152860857038758,0.08774158704148097,9.746946719234984,-0.3528227603581876
1560244287514504704,0.0012617339888877088,-0.003219387971905782,-0.001199744758196175,0.07562883976004353,9.746946719234984,-0.3651108599186557
1560244287524527104,0.003383122624902535,-2.9769236002535893e-05,-0.001199744758196175,0.07745116602631516,9.746946719234984,-0.37739825882191225
1560244287534549760,0.00020103955496794668,-0.004282594217206864,-0.00014222933624614964,0.0895634451780569,9.746946719234984,-0.3896858643260102
1560244287544572672,-0.0008596547630394663,-0.005345800578694798,-0.00014222933624614964,0.0898726053552732,9.770637155694477,-0.37802488122243894
1560244287554594816,-0.0019203490810468793,0.001033437125485398,0.0009152860857038758,0.0898726053552732,9.77677402313841,-0.3703302111342346
1560244287564617472,-0.0029810433990542923,-0.008535419430784896,-0.00014222933624614964,0.0898726053552732,9.752463654347602,-0.3703302111342346
1560244287574640128,0.00020103955496794668,-0.001092975481303618,-0.0022572601801462006,0.0898726053552732,9.746946719234984,-0.37982958009512446
1560244287584663040,0.003383122624902535,0.001033437125485398,0.0009152860857038758,0.0898726053552732,9.749042078058443,-0.3857629982129041
1560244287594685440,-0.0008596547630394663,-2.9769236002535893e-05,-0.00014222933624614964,0.0898726053552732,9.761196720561626,-0.3611881332524167
1560244287604707840,0.0012617339888877088,-0.0021561817266047,-0.0022572601801462006,0.0829496976566269,9.759456233194678,-0.3506608919895484
1560244287614730240,-0.0019203490810468793,-0.001092975481303618,0.0009152860857038758,0.07083777848583894,9.747301771311498,-0.3506608919895484
1560244287624753152,0.0023224281909827726,-0.005345800578694798,-0.00014222933624614964,0.07048396915281341,9.746946719234984,-0.3506608919895484
1560244287634775808,0.0023224281909827726,-0.004282594217206864,-0.001199744758196175,0.07496403158256114,9.751442517734693,-0.35520581081718866
1560244287644798464,0.0012617339888877088,-0.004282594217206864,-0.001199744758196175,0.08707469098849871,9.76359571542814,-0.36749179227666645
1560244287654820864,0.00020103955496794668,0.003159849616087562,0.0019728016232188617,0.08055931810890254,9.757057457518465,-0.36088209847576097
1560244287664843520,0.0012617339888877088,-0.005345800578694798,0.0019728016232188617,0.07252011732865975,9.748990019313432,-0.35272651681629674
1560244287674866176,0.0023224281909827726,-0.005345800578694798,0.0009152860857038758,0.08463041684991443,9.761142855858113,-0.3650121331811589
1560244287684888576,0.00020103955496794668,-2.9769236002535893e-05,-0.001199744758196175,0.0898726053552732,9.75951099939378,-0.3633624473313085
1560244287694911232,-0.0008596547630394663,-2.9769236002535893e-05,0.0019728016232188617,0.0898726053552732,9.747357259936937,-0.35107591818921935
1560244287704933888,0.00020103955496794668,-0.0021561817266047,-0.00014222933624614964,0.0898726053552732,9.746946719234984,-0.36253239493196665
1560244287714956544,0.004443817058822297,-0.007472213069296962,-0.004372291139611212,0.0898726053552732,9.751386985284997,-0.3703302111342346
1560244287724979200,-0.0008596547630394663,-0.0064090067078090285,-0.001199744758196175,0.0898726053552732,9.763540905340374,-0.3703302111342346
1560244287735002112,0.00020103955496794668,-0.005345800578694798,-0.003314775602096226,0.0898726053552732,9.757111662167066,-0.36093689535511064
1560244287745024256,0.00020103955496794668,-0.005345800578694798,0.004087832467118913,0.0898726053552732,9.746946719234984,-0.3526710191340189
1560244287755046912,-0.0008596547630394663,-0.004282594217206864,-0.003314775602096226,0.0898726053552732,9.746946719234984,-0.3649568180434765
1560244287765069312,0.004443817058822297,-2.9769236002535893e-05,0.0019728016232188617,0.08302913176558292,9.740079550657498,-0.3703302111342346
1560244287775022848,0.003383122624902535,-0.003219387971905782,0.005145348004633898,0.0709492478104694,9.727957841056513,-0.3703302111342346
1560244287785045248,-0.0019203490810468793,-0.007472213069296962,0.004087832467118913,0.08213109435198201,9.750866439198376,-0.3703302111342346
1560244287795067904,0.0023224281909827726,-0.008535419430784896,-0.00014222933624614964,0.0898726053552732,9.766403457375873,-0.36589800956897384
1560244287805090560,0.003383122624902535,-0.001092975481303618,-0.00014222933624614964,0.0898726053552732,9.766403457375873,-0.35361228349736645
1560244287815113216,0.004443817058822297,-0.003219387971905782,-0.00014222933624614964,0.0898726053552732,9.757170295015808,-0.3599949343074215
1560244287825135360,0.0012617339888877088,-0.00959862579227283,0.0019728016232188617,0.0898726053552732,9.746946719234984,-0.3683804358394339
1560244287835158016,0.0012617339888877088,-0.0021561817266047,0.0030303169296039267,0.0898726053552732,9.746946719234984,-0.35609372412562323
1560244287845180928,0.0012617339888877088,-0.0021561817266047,-0.001199744758196175,0.0898726053552732,9.746946719234984,-0.3575153694059902
1560244287855203584,0.0023224281909827726,-0.003219387971905782,0.0030303169296039267,0.0898726053552732,9.746946719234984,-0.36980262886752197
1560244287865225984,0.00020103955496794668,-0.001092975481303618,0.0009152860857038758,0.0898726053552732,9.746946719234984,-0.3703302111342346
1560244287875248384,0.0023224281909827726,-0.004282594217206864,-0.00014222933624614964,0.08555915382293601,9.751275321622058,-0.36595431517545063
1560244287885271552,-0.0019203490810468793,0.003159849616087562,0.0009152860857038758,0.07344737834741802,9.763429639305244,-0.35366720148941827
1560244287895293952,0.00020103955496794668,0.003159849616087562,-0.00014222933624614964,0.07048396915281341,9.748042467972098,-0.3506608919895484
1560244287905316608,0.0012617339888877088,-0.003219387971905782,-0.00014222933624614964,0.0723564503053647,9.731248974059298,-0.3506608919895484
1560244287915339008,-0.0019203490810468793,0.001033437125485398,0.0009152860857038758,0.08446808135780327,9.755556713432254,-0.3506608919895484
1560244287925361664,0.0012617339888877088,-0.003219387971905782,-0.0022572601801462006,0.0898726053552732,9.759672102584375,-0.3642706822370914
1560244287935384320,0.003383122624902535,-2.9769236002535893e-05,0.0030303169296039267,0.0898726053552732,9.747516918188971,-0.3888466428224099
1560244287945406976,0.003383122624902535,0.003159849616087562,0.0009152860857038758,0.07832885556944157,9.746946719234984,-0.37828865300172754
1560244287955429888,0.003383122624902535,-0.001092975481303618,-0.00014222933624614964,0.07475135343936078,9.751229092566604,-0.3660010493216843
1560244287965452288,0.003383122624902535,-0.005345800578694798,0.0009152860857038758,0.08686316447531997,9.763383445935135,-0.3537138995604138
1560244287975474944,0.0012617339888877088,-0.004282594217206864,0.0019728016232188617,0.0898726053552732,9.75726950498375,-0.3506608919895484
1560244287985497344,0.0012617339888877088,-2.9769236002535893e-05,0.0030303169296039267,0.0898726053552732,9.746946719234984,-0.3506608919895484
1560244287995520000,0.0012617339888877088,0.001033437125485398,0.004087832467118913,0.0898726053552732,9.746946719234984,-0.3506608919895484
1560244288005542656,-0.0029810433990542923,-0.005345800578694798,0.0009152860857038758,0.0898726053552732,9.746946719234984,-0.3506608919895484
1560244288015564800,-0.0008596547630394663,-0.007472213069296962,-0.00014222933624614964,0.0898726053552732,9.746946719234984,-0.3506608919895484
1560244288025587712,0.00020103955496794668,0.001033437125485398,0.0009152860857038758,0.0898726053552732,9.746946719234984,-0.36231827862835364
1560244288035610624,-0.004041737717061705,-0.008535419430784896,-0.0022572601801462006,0.0898726053552732,9.746946719234984,-0.36605563182916956
1560244288045633024,0.0023224281909827726,-0.0021561817266047,-0.00014222933624614964,0.0898726053552732,9.746946719234984,-0.3537699426286351
1560244288055655680,0.0023224281909827726,-0.004282594217206864,0.0009152860857038758,0.0898726053552732,9.746946719234984,-0.3598379591684956
1560244288065678080,-0.0029810433990542923,-0.0064090067078090285,-0.003314775602096226,0.0898726053552732,9.748720980397417,-0.36853656469682927
1560244288075700992,0.00020103955496794668,-0.00959862579227283,0.0009152860857038758,0.0898726053552732,9.760874828369971,-0.3562499258534072
1560244288085723392,-0.0029810433990542923,-0.007472213069296962,0.0030303169296039267,0.0898726053552732,9.759778915061455,-0.35735781292389224
1560244288095746048,0.00020103955496794668,-0.003219387971905782,0.0019728016232188617,0.0898726053552732,9.747625536785575,-0.36964397693881523
1560244288105768448,0.0012617339888877088,-0.0021561817266047,0.0019728016232188617,0.0898726053552732,9.758420820363849,-0.3703302111342346
1560244288115791360,0.00020103955496794668,-0.0021561817266047,0.0009152860857038758,0.08571610722767631,9.762232359687141,-0.3703302111342346
1560244288125814016,0.00020103955496794668,-0.0064090067078090285,-0.001199744758196175,0.07360472798820049,9.750078439631764,-0.3703302111342346
1560244288135836416,0.00020103955496794668,-0.003219387971905782,-0.0022572601801462006,0.07947376711566326,9.746946719234984,-0.3612102708077917
1560244288145859328,-0.004041737717061705,-0.0021561817266047,-0.0022572601801462006,0.0898726053552732,9.748664765632988,-0.35239770946959226
1560244288155881984,0.0012617339888877088,-0.003219387971905782,0.0009152860857038758,0.0898726053552732,9.760817421611335,-0.3646831432952834
1560244288165904384,0.00020103955496794668,-0.007472213069296962,-0.001199744758196175,0.0898726053552732,9.75983654082364,-0.3703302111342346
1560244288185949440,0.003383122624902535,-0.00959862579227283,-0.0022572601801462006,0.0898726053552732,9.746946719234984,-0.3703302111342346
1560244288195972096,0.00020103955496794668,-0.0021561817266047,-0.001199744758196175,0.0898726053552732,9.75106008268505,-0.36617190577638986
1560244288205994752,0.0023224281909827726,-0.005345800578694798,-0.00014222933624614964,0.0898726053552732,9.76321255810243,-0.35388665448444545
1560244288216016896,0.0012617339888877088,-0.005345800578694798,0.0009152860857038758,0.08094164547706756,9.766403457375873,-0.3597211424516479
1560244288226039808,0.00020103955496794668,-0.003219387971905782,0.0009152860857038758,0.07213819722227142,9.764743418885457,-0.36865203534628826
1560244288236062464,0.0023224281909827726,0.001033437125485398,-0.001199744758196175,0.08424903657857163,9.752590040609578,-0.35636587133136527
1560244288246085120,0.0012617339888877088,-0.005345800578694798,-0.001199744758196175,0.0898726053552732,9.746946719234984,-0.3572421744528843
1560244288256107520,0.004443817058822297,-0.005345800578694798,-0.001199744758196175,0.0898726053552732,9.746946719234984,-0.36952822876104896
1560244288266130432,0.003383122624902535,-0.004282594217206864,0.0009152860857038758,0.0898726053552732,9.758294606034731,-0.3703302111342346
1560244288276172544,0.0012617339888877088,-0.0064090067078090285,-0.001199744758196175,0.0898726053552732,9.762343597064149,-0.3703302111342346
1560244288286195200,0.0023224281909827726,0.001033437125485398,0.0019728016232188617,0.0898726053552732,9.750188593304854,-0.3703302111342346
1560244288296217600,0.0023224281909827726,-0.001092975481303618,0.0019728016232188617,0.0898726053552732,9.746946719234984,-0.3613203920918987
1560244288306240256,0.0012617339888877088,0.001033437125485398,-0.00014222933624614964,0.0898726053552732,9.746946719234984,-0.35228855459938463
1560244288316262912,0.00020103955496794668,-0.003219387971905782,-0.001199744758196175,0.0898726053552732,9.746946719234984,-0.3645750837414738
1560244288326285824,0.0023224281909827726,-0.003219387971905782,0.0009152860857038758,0.0898726053552732,9.746946719234984,-0.3703302111342346
1560244288336307968,0.00020103955496794668,-0.003219387971905782,-0.0022572601801462006,0.0898726053552732,9.746946719234984,-0.3703302111342346
1560244288346330880,0.00020103955496794668,0.001033437125485398,0.0019728016232188617,0.10114204558784937,9.7582557441023,-0.3588976257892645
1560244288356353536,0.0023224281909827726,-0.0021561817266047,-0.00014222933624614964,0.10527007204047624,9.762398270513751,-0.3547098388404923
1560244288366375936,0.0023224281909827726,-0.008535419430784896,0.006202863542148884,0.0931606015526298,9.75024626473078,-0.36699461536688177
1560244288376399104,0.00020103955496794668,0.0020966432545996283,0.0009152860857038758,0.0898726053552732,9.75580030984331,-0.3703302111342346
1560244288386421248,0.0012617339888877088,-0.0021561817266047,0.0019728016232188617,0.0898726053552732,9.766403457375873,-0.3687643575151744
1560244288396443904,-0.0008596547630394663,-0.004282594217206864,-0.001199744758196175,0.0898726053552732,9.766403457375873,-0.3564789236894832
1560244288406466560,0.0012617339888877088,-0.004282594217206864,-0.0022572601801462006,0.0898726053552732,9.753607247243549,-0.3571290629458
1560244288416489472,0.00020103955496794668,-0.0064090067078090285,0.0019728016232188617,0.0898726053552732,9.729299073824984,-0.36941624951741586
1560244288426512128,-0.0008596547630394663,-0.005345800578694798,0.0019728016232188617,0.0898726053552732,9.738739905804366,-0.3703302111342346
1560244288436534528,0.0023224281909827726,-0.003219387971905782,-0.00014222933624614964,0.0898726053552732,9.746946719234984,-0.36634128735660476
1560244288446556928,-0.0008596547630394663,0.0020966432545996283,0.0030303169296039267,0.0898726053552732,9.746946719234984,-0.35405567099174257
1560244288456579584,0.00020103955496794668,0.001033437125485398,-0.0022572601801462006,0.0898726053552732,9.746946719234984,-0.35955212567483286
1560244288466601984,0.00020103955496794668,0.0020966432545996283,-0.00014222933624614964,0.0898726053552732,9.746946719234984,-0.3703302111342346
1560244288476624896,0.0023224281909827726,-2.9769236002535893e-05,0.0019728016232188617,0.0898726053552732,9.746946719234984,-0.3703302111342346
1560244288486647040,-0.0008596547630394663,-0.003219387971905782,-0.0022572601801462006,0.0898726053552732,9.753289566717484,-0.3703302111342346
1560244288496669952,0.0012617339888877088,-0.003219387971905782,-0.0022572601801462006,0.0898726053552732,9.765444137112087,-0.3703302111342346
1560244288506692608,0.00020103955496794668,-0.001092975481303618,-0.00014222933624614964,0.0898726053552732,9.766403457375873,-0.3703302111342346
1560244288516715264,0.0023224281909827726,-0.001092975481303618,-0.0022572601801462006,0.0898726053552732,9.762511531495576,-0.3663957627352953
1560244288526737920,-0.005102432150981467,-0.0021561817266047,0.0019728016232188617,0.0898726053552732,9.750357250227033,-0.3541086858617636
1560244288536760320,-0.0019203490810468793,-0.0021561817266047,-0.00014222933624614964,0.0898726053552732,9.746946719234984,-0.3506608919895484
1560244288546783232,0.0012617339888877088,-0.003219387971905782,-0.00014222933624614964,0.09130814962335763,9.746946719234984,-0.35211721830413467
1560244288556805632,0.0012617339888877088,-0.0021561817266047,-0.001199744758196175,0.10341851976131983,9.746946719234984,-0.3644029075046692
1560244288566828288,-0.0029810433990542923,-0.003219387971905782,-0.001199744758196175,0.10299367386030592,9.753236300272519,-0.3703302111342346
1560244288576850944,-0.0008596547630394663,-0.001092975481303618,0.0030303169296039267,0.09088373538189708,9.765388775689898,-0.3703302111342346
1560244288586873344,0.00020103955496794668,-0.001092975481303618,0.0019728016232188617,0.0898726053552732,9.766403457375873,-0.3590716891135936
1560244288596896256,0.0023224281909827726,-0.001092975481303618,0.0009152860857038758,0.0898726053552732,9.762570968816169,-0.3506608919895484
1560244288606918912,0.0023224281909827726,-2.9769236002535893e-05,0.0019728016232188617,0.0898726053552732,9.750418132271488,-0.3506608919895484
1560244288616941568,0.004443817058822297,-0.003219387971905782,0.0030303169296039267,0.0898726053552732,9.746946719234984,-0.3506608919895484
1560244288626963712,-0.0029810433990542923,-0.0021561817266047,0.0030303169296039267,0.0898726053552732,9.746946719234984,-0.35205300407606255
1560244288636986368,0.004443817058822297,0.003159849616087562,-0.00014222933624614964,0.0898726053552732,9.746946719234984,-0.36433971578987323
1560244288647009024,0.00020103955496794668,-0.0064090067078090285,-0.00014222933624614964,0.0898726053552732,9.746946719234984,-0.3703302111342346
1560244288657031936,0.004443817058822297,-0.0021561817266047,-0.003314775602096226,0.0898726053552732,9.746946719234984,-0.3703302111342346
1560244288667054592,-0.0029810433990542923,-0.003219387971905782,-0.00014222933624614964,0.0898726053552732,9.758024548272765,-0.3703302111342346
1560244288677076736,-0.0008596547630394663,-0.001092975481303618,0.0030303169296039267,0.0898726053552732,9.762630008346692,-0.3703302111342346
1560244288687099648,0.00020103955496794668,-0.0021561817266047,0.0009152860857038758,0.0898726053552732,9.750476160374138,-0.3703302111342346
1560244288697122048,0.0023224281909827726,0.001033437125485398,0.0030303169296039267,0.0898726053552732,9.746946719234984,-0.3703302111342346
1560244288707144960,0.00020103955496794668,-0.0064090067078090285,-0.00014222933624614964,0.08855565552049187,9.746946719234984,-0.3703302111342346
1560244288717167616,-0.0029810433990542923,-0.0064090067078090285,-0.001199744758196175,0.07644409630926083,9.746946719234984,-0.3703302111342346
1560244288727190016,-0.0019203490810468793,-0.0021561817266047,0.0009152860857038758,0.07663465611025114,9.753119010275354,-0.3703302111342346
1560244288737212672,0.0023224281909827726,-0.001092975481303618,0.0030303169296039267,0.08874531551618871,9.7652722079688,-0.3703302111342346
1560244288747235072,0.0023224281909827726,-0.004282594217206864,-0.00014222933624614964,0.07888887106425611,9.755381143084252,-0.3703302111342346
1560244288757257984,0.00020103955496794668,-0.004282594217206864,0.0009152860857038758,0.07048396915281341,9.750685895803674,-0.37411023541762345
1560244288767280384,0.00020103955496794668,-0.001092975481303618,0.0009152860857038758,0.07048396915281341,9.76290288363346,-0.3864606847259414
1560244288777220352,-0.0029810433990542923,-0.004282594217206864,-0.0022572601801462006,0.07048396915281341,9.766403457375873,-0.37267166826350057
1560244288787242752,-0.005102432150981467,-0.0021561817266047,-0.001199744758196175,0.07174567690307453,9.766403457375873,-0.3506608919895484
1560244288797265152,0.0023224281909827726,0.001033437125485398,0.0019728016232188617,0.08385766792790367,9.766403457375873,-0.3506608919895484
1560244288807288064,-0.0008596547630394663,-0.001092975481303618,-0.001199744758196175,0.0898726053552732,9.760284666237744,-0.35684653599647487
1560244288817310720,0.0012617339888877088,-0.0021561817266047,0.0030303169296039267,0.0898726053552732,9.7481309267809,-0.3691330651385641
1560244288827332864,0.0023224281909827726,0.003159849616087562,0.0009152860857038758,0.0898726053552732,9.757915672919571,-0.3703302111342346
1560244288837355520,0.0012617339888877088,-0.005345800578694798,0.0019728016232188617,0.08621964467048114,9.76273766578843,-0.36662436773287915
1560244288847378432,0.0012617339888877088,-0.001092975481303618,-0.0022572601801462006,0.07410869717616149,9.7505841789947,-0.35433809401445804
1560244288857401088,0.003383122624902535,-0.003219387971905782,0.0019728016232188617,0.07896977444804469,9.746946719234984,-0.3506608919895484
1560244288867423488,-0.0008596547630394663,-0.004282594217206864,0.0030303169296039267,0.0898726053552732,9.746946719234984,-0.3506608919895484
1560244288877445888,-0.0019203490810468793,-0.005345800578694798,0.0009152860857038758,0.0898726053552732,9.746946719234984,-0.3506608919895484
1560244288887468800,-0.0019203490810468793,-0.0064090067078090285,0.0019728016232188617,0.0898726053552732,9.746946719234984,-0.3506608919895484
1560244288897491456,-0.006163126353076531,-0.005345800578694798,0.0030303169296039267,0.0898726053552732,9.746946719234984,-0.3506608919895484
1560244288907514112,0.00020103955496794668,-0.004282594217206864,0.0009152860857038758,0.0898726053552732,9.746946719234984,-0.36169308258216387
1560244288917536768,0.00020103955496794668,-0.0021561817266047,0.0030303169296039267,0.0898726053552732,9.750556511723007,-0.3666809786689122
1560244288927559424,0.0012617339888877088,-0.0021561817266047,-0.00014222933624614964,0.0898726053552732,9.762710973606186,-0.35439371920738044
1560244288937581824,-0.0019203490810468793,-0.005345800578694798,-0.001199744758196175,0.08144090963182062,9.766403457375873,-0.3677683959059782
1560244288947604736,0.0023224281909827726,0.001033437125485398,0.0009152860857038758,0.07163866170247178,9.767562205744625,-0.3888280927948762
1560244288957627392,0.005504511492742059,0.0020966432545996283,0.0019728016232188617,0.08374968101448242,9.779715764608303,-0.37654176536680506
1560244288967650048,0.0023224281909827726,-0.0021561817266047,0.0019728016232188617,0.0898726053552732,9.767833111328338,-0.36425542847145653
1560244288977672448,0.00020103955496794668,-0.001092975481303618,-0.0022572601801462006,0.0898726053552732,9.731373908151586,-0.3519693741632919
1560244288987694848,-0.0019203490810468793,-0.005345800578694798,-0.00014222933624614964,0.1006940078878382,9.749209236657626,-0.3506608919895484
1560244288997717760,0.00020103955496794668,0.001033437125485398,-0.00014222933624614964,0.10571660056134181,9.76284636749481,-0.3506608919895484
1560244289007740160,-0.0008596547630394663,-0.0021561817266047,-0.00014222933624614964,0.09360623042337962,9.750693458901644,-0.3506608919895484
1560244289017762560,0.00020103955496794668,0.0020966432545996283,0.0030303169296039267,0.08149561052832296,9.755353137977055,-0.35915915782960606
1560244289027784960,-0.0008596547630394663,0.001033437125485398,-0.00014222933624614964,0.0715831243220293,9.764197480553424,-0.36921514385528403
1560244289037808128,0.003383122624902535,-0.0064090067078090285,-0.00014222933624614964,0.08369543973850022,9.739888367679042,-0.35692748241175026
1560244289047830528,0.00020103955496794668,-0.0064090067078090285,-0.001199744758196175,0.09580715479598192,9.739401444266422,-0.35668135454710503
1560244289057853440,-0.0029810433990542923,0.003159849616087562,0.004087832467118913,0.10791972089482905,9.763711062621882,-0.3689692714989487
1560244289067875584,0.0012617339888877088,0.001033437125485398,-0.0022572601801462006,0.08772279317892973,9.755596407066705,-0.3594050848358547
1560244289077898496,0.0023224281909827726,-2.9769236002535893e-05,-0.00014222933624614964,0.07048396915281341,9.75045121619621,-0.3506608919895484
1560244289087920896,0.0023224281909827726,0.0020966432545996283,0.0009152860857038758,0.07048396915281341,9.762605208338694,-0.3506608919895484
1560244289097943808,-0.0029810433990542923,-0.001092975481303618,0.0030303169296039267,0.08713836140865963,9.758047011842125,-0.3591086386225279
1560244289107966720,0.00020103955496794668,0.001033437125485398,0.0019728016232188617,0.10821040968937823,9.748001240322811,-0.3703302111342346
1560244289117989120,-0.0029810433990542923,-2.9769236002535893e-05,-0.00014222933624614964,0.09609805985054641,9.760156135570671,-0.3703302111342346
1560244289128011520,-0.0008596547630394663,-0.007472213069296962,-0.00014222933624614964,0.08398632177275903,9.760496498418467,-0.3703302111342346
1560244289138034432,-0.0008596547630394663,-0.004282594217206864,0.0009152860857038758,0.07187465442777773,9.748342289245624,-0.3703302111342346
1560244289148057344,0.0023224281909827726,-0.005345800578694798,-0.003314775602096226,0.07048396915281341,9.75770567814276,-0.38120670364221476
1560244289158079744,0.0012617339888877088,-0.004282594217206864,-0.001199744758196175,0.07392828945068688,9.762947039017753,-0.38301113987904556
1560244289168102144,0.0012617339888877088,-0.005345800578694798,0.0019728016232188617,0.08604046046973553,9.750792324401704,-0.35843612911715406
1560244289178124544,0.0012617339888877088,-0.0021561817266047,0.0030303169296039267,0.0898726053552732,9.746946719234984,-0.3506608919895484
1560244289188147200,0.0023224281909827726,0.003159849616087562,0.004087832467118913,0.0898726053552732,9.746946719234984,-0.3516783209592146
1560244289198170112,0.0012617339888877088,-0.0021561817266047,-0.00014222933624614964,0.0898726053552732,9.746946719234984,-0.36396550753083046
1560244289208192768,0.00020103955496794668,-0.01172503805050129,0.0019728016232188617,0.0898726053552732,9.746946719234984,-0.3762519526150929
1560244289218214656,0.0012617339888877088,-2.9769236002535893e-05,-0.001199744758196175,0.0898726053552732,9.746946719234984,-0.388537038151954
1560244289228237824,-0.0019203490810468793,0.001033437125485398,0.0019728016232188617,0.0898726053552732,9.757654632837367,-0.3683497036136238
1560244289238260480,0.00020103955496794668,-0.001092975481303618,-0.0022572601801462006,0.08647914743640121,9.762998080049167,-0.3506608919895484
1560244289248283136,-0.0008596547630394663,0.001033437125485398,-0.0022572601801462006,0.07436722826561326,9.750843618165987,-0.3506608919895484
1560244289258306048,-0.0008596547630394663,0.001033437125485398,-0.003314775602096226,0.07869814757866009,9.75518974968877,-0.35899398438873825
1560244289268328192,0.0023224281909827726,0.001033437125485398,-0.001199744758196175,0.0898726053552732,9.765483403568316,-0.3703302111342346
1560244289278380288,0.0023224281909827726,-2.9769236002535893e-05,-0.00014222933624614964,0.0898726053552732,9.753292546046564,-0.3703302111342346
1560244289288403200,0.0012617339888877088,-0.0021561817266047,0.004087832467118913,0.0840838175020921,9.752755840012556,-0.3703302111342346
1560244289298425344,0.003383122624902535,-2.9769236002535893e-05,0.0009152860857038758,0.07197265454189297,9.764909543028983,-0.3703302111342346
1560244289308448256,-0.0019203490810468793,-0.0021561817266047,-0.00014222933624614964,0.08110683750041806,9.766403457375873,-0.35955355899742714
1560244289318470912,0.0012617339888877088,-2.9769236002535893e-05,-0.001199744758196175,0.0898726053552732,9.766403457375873,-0.35405485498746947
1560244289328493568,-0.004041737717061705,0.001033437125485398,-0.00014222933624614964,0.0898726053552732,9.766403457375873,-0.3663417492784276
1560244289338515968,0.0023224281909827726,-2.9769236002535893e-05,0.0019728016232188617,0.0898726053552732,9.758195367321667,-0.3703302111342346
1560244289348538624,-0.0008596547630394663,-0.007472213069296962,0.0009152860857038758,0.0898726053552732,9.7442319916939,-0.36941539986312893
1560244289358561280,0.0023224281909827726,0.001033437125485398,0.0009152860857038758,0.0898726053552732,9.707771379434453,-0.35712887072103977
1560244289368583936,0.00020103955496794668,-0.008535419430784896,0.0030303169296039267,0.09560803874836772,9.763399434201412,-0.3506608919895484
1560244289378606848,0.0012617339888877088,-0.0021561817266047,-0.00014222933624614964,0.10771934497763742,9.921398245611606,-0.3506608919895484
1560244289388629248,0.00020103955496794668,-0.001092975481303618,0.004087832467118913,0.08812388203334097,9.729398687743558,-0.3613825706347611
1560244289398651904,-0.0008596547630394663,-0.007472213069296962,0.0019728016232188617,0.07048396915281341,9.611824014644007,-0.3669917372246381
1560244289408674304,-0.0008596547630394663,-0.003219387971905782,-0.001199744758196175,0.07048396915281341,9.830575157181665,-0.35470604802410366
1560244289418697216,-0.0008596547630394663,-0.0064090067078090285,-0.001199744758196175,0.08673075935253069,9.772170172479063,-0.375383852005245
1560244289428719872,0.0023224281909827726,-0.0064090067078090285,0.0019728016232188617,0.1067247346142386,9.606566186957318,-0.4070955654973606
1560244289438742272,0.0012617339888877088,-0.007472213069296962,-0.0022572601801462006,0.07039524125959999,9.825307578909161,-0.3702401790497243
1560244289448764928,0.0023224281909827726,-0.001092975481303618,-0.0022572601801462006,0.07380448378589684,9.821872173850503,-0.3621798349044728
1560244289458787584,0.0023224281909827726,-0.001092975481303618,0.0009152860857038758,0.12225259299550865,9.566628014021406,-0.3867545540722225
1560244289468810240,0.00020103955496794668,0.001033437125485398,0.0009152860857038758,0.08660520402385707,9.743884733460522,-0.35800951901210015
1560244289478832384,0.0012617339888877088,-0.0021561817266047,0.0030303169296039267,0.06402570017524656,9.87339752308429,-0.33755036357650664
1560244289488855040,0.0023224281909827726,-0.0064090067078090285,-0.001199744758196175,0.11247193702017075,9.691087225453334,-0.362124142584135
1560244289498877952,0.0012617339888877088,0.0020966432545996283,-0.003314775602096226,0.1125161124613792,9.719254247356764,-0.36214654686424413
1560244289508900608,0.0012617339888877088,-2.9769236002535893e-05,-0.00014222933624614964,0.09302913602409192,9.837895213368267,-0.35146144871115587
1560244289518923264,0.00020103955496794668,-0.003219387971905782,-0.001199744758196175,0.14147537050959808,9.74066301422315,-0.363748343002114
1560244289528945664,-0.0008596547630394663,-2.9769236002535893e-05,-0.0022572601801462006,0.133687186588417,9.733721822215099,-0.3589207478231615
1560244289538968576,-0.0029810433990542923,-0.003219387971905782,-0.00014222933624614964,0.06101610502178495,9.830956334319897,-0.3343463842544454
1560244289548991232,0.0012617339888877088,-0.0021561817266047,0.0009152860857038758,0.05109533295035362,9.760279771313863,-0.30977451346051366
1560244289559013888,-0.0029810433990542923,0.003159849616087562,0.0019728016232188617,0.05109533295035362,9.707720227033033,-0.28197705725410255
1560244289569036544,-0.0029810433990542923,0.003159849616087562,0.004087832467118913,0.05109533295035362,9.780644830988694,-0.24511642225266772
1560244289579059200,0.0023224281909827726,-0.0021561817266047,-0.0022572601801462006,0.06712168964554148,9.765111282124456,-0.24077428490293418
1560244289589081600,0.00020103955496794668,-0.003219387971905782,-0.00014222933624614964,0.09060757334943116,9.712459437403083,-0.2523144035542604
1560244289599104256,0.0012617339888877088,0.0020966432545996283,0.0030303169296039267,0.1027191313809532,9.78538282910055,-0.2523144035542604
1560244289609127168,0.0012617339888877088,0.0020966432545996283,0.0009152860857038758,0.11483097860725855,9.79682674938515,-0.2636151296971597
1560244289619149568,0.0023224281909827726,-0.004282594217206864,0.0009152860857038758,0.1269425389981986,9.736057458346963,-0.2881888895562123
1560244289629171968,-0.0008596547630394663,-2.9769236002535893e-05,0.0019728016232188617,0.10784289815424233,9.769251078264805,-0.2916529958630001
1560244289639194368,0.003383122624902535,-2.9769236002535893e-05,-0.0022572601801462006,0.0898726053552732,9.79590540730678,-0.2853095513949781
1560244289649217280,0.0012617339888877088,0.004223055977575496,-0.0022572601801462006,0.0898726053552732,9.759439464324723,-0.2607337462165452
1560244289659239936,-0.0019203490810468793,-0.0021561817266047,0.0030303169296039267,0.0898726053552732,9.754937007001706,-0.24423682785420286
1560244289669262592,0.003383122624902535,0.003159849616087562,0.0019728016232188617,0.08918723291061269,9.765027932090625,-0.23125452743234665
1560244289679284992,0.004443817058822297,0.004223055977575496,0.0019728016232188617,0.07707668164697522,9.740722359826679,-0.20668280307605477
1560244289689307904,-0.0019203490810468793,0.001033437125485398,0.0009152860857038758,0.08152145454186463,9.733028802583922,-0.1989051368832065
1560244289699330560,0.004443817058822297,0.001033437125485398,-0.00014222933624614964,0.10574457178461771,9.7451822971141,-0.21119201681273278
1560244289709353216,-0.0008596547630394663,-0.0021561817266047,-0.00014222933624614964,0.09890755393560777,9.757336772956661,-0.23398293047492713
1560244289719376128,0.0023224281909827726,0.006349468235803957,0.0009152860857038758,0.09294976850936415,9.766403457375873,-0.2585578173412357
1560244289729398272,0.00020103955496794668,0.006349468235803957,-0.003314775602096226,0.10506021044788744,9.766403457375873,-0.2831293127020907
1560244289739420928,0.0023224281909827726,0.0020966432545996283,-0.001199744758196175,0.09344173120279561,9.766403457375873,-0.2836287405678075
1560244289749443584,0.0012617339888877088,0.001033437125485398,0.0019728016232188617,0.0717475059606714,9.765769469875606,-0.2707018653636482
1560244289759466240,-0.0008596547630394663,0.004223055977575496,-0.00014222933624614964,0.09596846370291254,9.753616452759225,-0.24613030583847034
1560244289769489152,0.003383122624902535,-0.001092975481303618,-0.0022572601801462006,0.09827190338027103,9.752460687486712,-0.21034828398020464
1560244289779424256,-0.0008596547630394663,-0.0021561817266047,0.0009152860857038758,0.07412931415123225,9.764574382711181,-0.16136413973384828
1560244289789446400,-0.0029810433990542923,0.001033437125485398,-0.001199744758196175,0.07048396915281341,9.745737078764405,-0.13307523778625624
1560244289799469312,0.005504511492742059,-0.005345800578694798,-0.001199744758196175,0.07048396915281341,9.733551370676008,-0.11769270735441051
1560244289809491712,0.00020103955496794668,-0.0021561817266047,0.0009152860857038758,0.07048396915281341,9.757858387636357,-0.12997929620037818
1560244289819514624,0.003383122624902535,-0.0021561817266047,0.004087832467118913,0.06262992496785336,9.766403457375873,-0.14226635043258853
1560244289829537280,0.0012617339888877088,-0.005345800578694798,-0.00014222933624614964,0.051672188746655016,9.766982339358933,-0.15455311746615516
1560244289839559680,0.0023224281909827726,-0.003219387971905782,-0.00014222933624614964,0.06378471977019233,9.779137415243973,-0.16684098566920816
1560244289849582080,0.0012617339888877088,-0.008535419430784896,0.0009152860857038758,0.06507104291580709,9.780428256556762,-0.16814592922304805
1560244289859604992,-0.0008596547630394663,-0.008535419430784896,0.0030303169296039267,0.05295937557082578,9.76827404738392,-0.15585893720088947
1560244289869627648,-0.0008596547630394663,-0.0021561817266047,-0.003314775602096226,0.08183916916179182,9.766403457375873,-0.13317533079031343
1560244289879650304,-0.0019203490810468793,-0.01172503805050129,-0.001199744758196175,0.10926123966921075,9.760439737501821,-0.10558578355899287
1560244289889672704,-0.0029810433990542923,-0.010661831689013357,0.004087832467118913,0.10926123966921075,9.73613091442944,-0.06872327818777356
1560244289899695360,-0.0019203490810468793,-0.008535419430784896,-0.00014222933624614964,0.10926123966921075,9.735324893110556,-0.02394174240427204
1560244289909718016,0.00020103955496794668,-0.0064090067078090285,-0.00014222933624614964,0.1103208917183756,9.74641505872956,0.021443278949535016
1560244289919740672,-0.0008596547630394663,-0.004282594217206864,0.0009152860857038758,0.13454365019732725,9.734261744794274,-0.015416815501778106
1560244289929763328,0.003383122624902535,-0.007472213069296962,0.0009152860857038758,0.14803851207413032,9.743638090184927,-0.04683466852124689
1560244289939785984,-0.0019203490810468793,-0.0064090067078090285,0.0019728016232188617,0.14803851207413032,9.780097077181201,-0.07140660391616985
1560244289949808384,0.003383122624902535,-0.001092975481303618,0.0019728016232188617,0.12764797891282356,9.785860195516761,-0.09597641899670681
1560244289959831040,0.00020103955496794668,-0.004282594217206864,0.004087832467118913,0.10926123966921075,9.785860195516761,-0.10279242894436531
1560244289969853952,-0.0019203490810468793,-0.004282594217206864,-0.001199744758196175,0.10926123966921075,9.785860195516761,-0.05364081499684267
1560244289979876608,-0.0019203490810468793,-0.0021561817266047,-0.00014222933624614964,0.11701375627282802,9.76252134458928,-0.012357913292121617
1560244289989899008,0.00020103955496794668,0.0020966432545996283,-0.001199744758196175,0.129124675586981,9.727967393231426,0.023537436776054566
1560244289999921408,0.00020103955496794668,0.0020966432545996283,0.004087832467118913,0.14123576554128794,9.740120418063663,0.03582385142659169
1560244290009944320,0.004443817058822297,0.007412674597291891,0.0019728016232188617,0.14803851207413032,9.746946719234984,0.04272507707848128
1560244290019967232,-0.0029810433990542923,0.003159849616087562,-0.001199744758196175,0.14803851207413032,9.746946719234984,0.04272507707848128
1560244290029989632,0.0012617339888877088,0.001033437125485398,-0.0022572601801462006,0.10747632460572909,9.767299050130545,0.0015757211691495368
1560244290040012032,0.00020103955496794668,0.007412674597291891,-0.0022572601801462006,0.06762205664114572,9.785860195516761,-0.04175880715862286
1560244290050034688,0.0023224281909827726,0.004223055977575496,0.0019728016232188617,0.0555112172848455,9.785860195516761,-0.06633110766402717
1560244290060057344,-0.0019203490810468793,0.0020966432545996283,0.0009152860857038758,0.05109533295035362,9.785860195516761,-0.06748391291791737
1560244290070080000,0.0023224281909827726,0.004223055977575496,0.0009152860857038758,0.051931891891471564,9.785020698190246,-0.05477275423008027
1560244290080102400,0.0023224281909827726,0.0020966432545996283,-0.001199744758196175,0.07615119506487034,9.760716325521692,-0.030202862454484416
1560244290090125312,-0.0019203490810468793,-0.001092975481303618,-0.0022572601801462006,0.08462277076860399,9.746946719234984,-0.005631169713212135
1560244290100147968,-0.0008596547630394663,0.006349468235803957,-0.004372291139611212,0.07251211136266641,9.746946719234984,0.018940764485013743
1560244290110170368,0.0023224281909827726,-0.0021561817266047,0.0009152860857038758,0.0906493252742785,9.726711036579465,0.03328440380207229
1560244290120193280,-0.0008596547630394663,-2.9769236002535893e-05,-0.0022572601801462006,0.10365018049525793,9.713664840969656,0.03418665146246157
1560244290130215936,-0.0008596547630394663,-0.0064090067078090285,-0.00014222933624614964,0.07942778312879367,9.737971713772259,-0.0026729024547941863
1560244290140238336,-0.0008596547630394663,-0.005345800578694798,-0.001199744758196175,0.055206869247662854,9.75461209933967,-0.031781071587798845
1560244290150261248,0.0012617339888877088,-2.9769236002535893e-05,-0.001199744758196175,0.03242815581571604,9.767127468597515,-0.056353325462457166
1560244290160283904,0.0012617339888877088,-0.007472213069296962,0.0030303169296039267,0.056652354132896265,9.791437359760002,-0.08092818324190851
1560244290170306560,0.0012617339888877088,-0.0021561817266047,-0.00014222933624614964,0.0652880635700121,9.789675175856084,-0.0896888996323154
1560244290180328960,-0.0008596547630394663,-0.004282594217206864,0.0030303169296039267,0.05317715239816744,9.753214218728399,-0.07740267592613928
1560244290190351616,-0.0029810433990542923,-0.012788244411989225,-0.004372291139611212,0.06112544799777516,9.73688187570494,-0.03458949455799533
1560244290200374272,0.00020103955496794668,-0.005345800578694798,-0.0022572601801462006,0.07323698263796505,9.724728268054927,0.0005936047467101136
1560244290210396672,-0.0008596547630394663,-0.0064090067078090285,-0.001199744758196175,0.08534753390160253,9.712575178883625,-0.011692252644690265
1560244290220419328,-0.0008596547630394663,-0.010661831689013357,-0.001199744758196175,0.06711530164738455,9.715646625926848,-0.03167397938571724
1560244290230441984,0.0012617339888877088,-0.01810427528993408,0.0019728016232188617,0.03232268462516345,9.72841816326571,-0.05687123217729818
1560244290240464896,0.003383122624902535,-0.004282594217206864,-0.0022572601801462006,0.05654673922996937,9.764881268296996,-0.1060206561508106
1560244290250487296,0.0023224281909827726,-0.014914657134965092,0.0019728016232188617,0.06534128587994972,9.78069944874031,-0.139515741250771
1560244290260509952,0.00020103955496794668,-0.014914657134965092,0.0019728016232188617,0.053229906640473904,9.768545528684934,-0.15180243860336323
1560244290270532608,-0.0019203490810468793,-0.015977862566958212,0.004087832467118913,0.07097450460515177,9.78635295139012,-0.15396791128725296
1560244290280615680,0.0012617339888877088,-0.01810427528993408,0.0019728016232188617,0.0952723589766846,9.802608408817028,-0.1567068706632878
1560244290290638336,-0.004041737717061705,-0.010661831689013357,0.0030303169296039267,0.11949547739914668,9.790453702028653,-0.16899375298638608
1560244290300660736,-0.005102432150981467,-0.0064090067078090285,0.0019728016232188617,0.11358285537733595,9.785860195516761,-0.1812797737083249
1560244290310683136,-0.0008596547630394663,-0.0064090067078090285,0.0019728016232188617,0.09063937941316973,9.785347217282627,-0.19226934267049944
1560244290320705792,-0.0019203490810468793,-0.005345800578694798,0.005145348004633898,0.12697945590229548,9.761035403295567,-0.14311451509022527
1560244290330728448,-0.004041737717061705,-0.004282594217206864,-0.00014222933624614964,0.14803851207413032,9.731612735046015,-0.0991275552929124
1560244290340751104,0.003383122624902535,-0.0064090067078090285,0.0009152860857038758,0.14803851207413032,9.695146704195993,-0.06226252948104507
1560244290350773504,0.00020103955496794668,-2.9769236002535893e-05,0.0019728016232188617,0.11824849529414619,9.70850724458749,-0.05562142285196492
1560244290360796160,0.005504511492742059,0.001033437125485398,-0.001199744758196175,0.11110148028447323,9.724828021262738,-0.06908153249916452
1560244290370818816,0.0023224281909827726,0.003159849616087562,0.0019728016232188617,0.20799827119367092,9.712673378759556,-0.13051867575095355
1560244290380841472,0.009747288764771711,-2.9769236002535893e-05,0.0030303169296039267,0.19255437474818415,9.730581609752818,-0.17676201053704846
1560244290390863872,0.007625899896932187,0.006349468235803957,0.0019728016232188617,0.11075577615377427,9.766831978350854,-0.21362559100315104
1560244290400886784,0.0023224281909827726,-0.0021561817266047,0.0019728016232188617,0.19554500594401164,9.79114317034449,-0.2504898465960336
1560244290410909440,0.0023224281909827726,0.006349468235803957,-0.0022572601801462006,0.18943003675110393,9.795181873276455,-0.27710694792295537
1560244290420932096,0.003383122624902535,0.0020966432545996283,-0.003314775602096226,0.05619100841569519,9.770870898302505,-0.2893949282156146
1560244290430955008,0.0012617339888877088,0.001033437125485398,-0.001199744758196175,0.08114430450654002,9.776325708517497,-0.2816223437131898
1560244290440977152,-0.0008596547630394663,0.0020966432545996283,-0.001199744758196175,0.11559398877119707,9.780619496571196,-0.2640367644407459
1560244290451000064,-0.0019203490810468793,0.0020966432545996283,-0.0022572601801462006,0.055033852259182295,9.756310355781991,-0.22717470005110832
1560244290461022464,0.00020103955496794668,-0.0021561817266047,-0.001199744758196175,0.02425990216317783,9.769365945521049,-0.22808498765176716
1560244290471045376,-0.0019203490810468793,-0.007472213069296962,-0.00014222933624614964,0.012660957049675986,9.80480174401635,-0.2521404735729549
1560244290481067776,0.00020103955496794668,-2.9769236002535893e-05,-0.003314775602096226,0.03688731544517599,9.768333958798348,-0.23985195499460005
1560244290491090432,0.00020103955496794668,-0.001092975481303618,-0.003314775602096226,0.046086832419214165,9.746946719234984,-0.20215910352558936
1560244290501112832,-0.0008596547630394663,-2.9769236002535893e-05,0.0019728016232188617,0.03397556131776977,9.746946719234984,-0.1284395644659958
1560244290511136000,0.0012617339888877088,-0.013851450773477159,-0.00014222933624614964,0.041552015790981715,9.707427610356637,-0.06469013804230692
1560244290521158400,0.0012617339888877088,-0.0021561817266047,0.0009152860857038758,0.0536655013992456,9.66396234482571,-0.016282826711505827
1560244290531181056,0.0023224281909827726,-0.007472213069296962,0.0019728016232188617,0.06577814055333989,9.639651976034905,-0.016282826711505827
1560244290541203456,0.005504511492742059,-0.012788244411989225,0.004087832467118913,0.08529767371125699,9.65250586759266,-0.016282826711505827
1560244290551226368,0.008686594330851949,-0.00959862579227283,0.0009152860857038758,0.11031466299633666,9.688709615553371,-0.017084330877185264
1560244290561249024,0.012929372066530997,-0.0021561817266047,0.0030303169296039267,0.2072157785887193,9.700864799948775,-0.090812191089072
1560244290571271424,0.012929372066530997,-0.0064090067078090285,0.0009152860857038758,0.23456258377493366,9.747917227370907,-0.2199764344409402
1560244290581294592,0.015050760007071728,-0.001092975481303618,0.0009152860857038758,0.161884368939437,9.845161277534219,-0.42887885432904604
1560244290591316736,0.012929372066530997,-2.9769236002535893e-05,0.0019728016232188617,0.11862797789791552,9.952228173425102,-0.6079126202751721
1560244290601339392,0.011868676705312442,-0.0021561817266047,-0.001199744758196175,0.07976626576902997,10.028654983267034,-0.7619890091519661
1560244290611362048,0.0023224281909827726,0.003159849616087562,-0.001199744758196175,0.031317149162063046,9.980035690752816,-0.8480022476806519
1560244290621385216,-0.009345209654835818,-0.003219387971905782,-0.001199744758196175,0.03440960835641094,9.916631949725543,-0.7024412450337707
1560244290631407616,-0.016770070228624756,-0.003219387971905782,-0.001199744758196175,0.07021858454742952,9.842632518233843,-0.4064380737148082
1560244290641430016,-0.018891458169165487,-0.0021561817266047,-0.001199744758196175,0.03387991139914819,9.623835861466162,0.03593828226879403
1560244290651452416,-0.008284515220916056,0.004223055977575496,-0.001199744758196175,0.04679984158284247,9.464351684018062,0.37838232811649025
1560244290661475328,-0.005102432150981467,-0.003219387971905782,0.0019728016232188617,0.13159537203219096,9.391415113302092,0.5750063012540949
1560244290671497984,0.003383122624902535,0.001033437125485398,0.0030303169296039267,0.11874767206469083,9.475250197085547,0.39522585317812153
1560244290681520640,0.01611145444099149,-0.0021561817266047,-0.001199744758196175,0.0898726053552732,9.60678160212389,0.09714271928538958
1560244290691542784,0.022475619189912477,0.003159849616087562,0.0009152860857038758,0.0898726053552732,9.776929703743887,-0.3083050613965261
1560244290701565696,0.023536315478429826,-0.003219387971905782,0.0019728016232188617,0.11915751719106889,9.895658650746467,-0.6320752174943027
1560244290711588352,0.02035423217667054,0.004223055977575496,0.0009152860857038758,0.16720817645107858,9.980514502239622,-0.901312359143428
1560244290721611008,0.015050760007071728,0.001033437125485398,0.0019728016232188617,0.10664858295662694,10.00482342600598,-0.8767378785186543
1560244290731633152,-0.0019203490810468793,-2.9769236002535893e-05,-0.00014222933624614964,0.06560569424524017,9.989967868915523,-0.792778162036562
1560244290741656576,-0.006163126353076531,-0.005345800578694798,-0.001199744758196175,0.05349327070464917,9.917038666940487,-0.6207495385250034
1560244290751678976,-0.01358798692686547,-0.0021561817266047,-0.001199744758196175,0.08995097587549951,9.795372774791092,-0.36989290120104434
1560244290761701632,-0.01358798692686547,0.0020966432545996283,-0.0022572601801462006,0.11150752153545747,9.671375029264267,-0.11918690705557204
1560244290771724544,-0.010405903625106183,-0.005345800578694798,-0.00014222933624614964,0.026324600337863227,9.585893513708882,0.053645083121216824
1560244290781671936,-0.004041737717061705,-0.007472213069296962,-0.00014222933624614964,0.10202940077356876,9.53048464083008,0.10664502215936797
1560244290791694848,0.003383122624902535,-0.0064090067078090285,-0.00014222933624614964,0.2837287047025037,9.494017136310486,0.08206774647286053
1560244290801717504,0.008686594330851949,-2.9769236002535893e-05,-0.00014222933624614964,0.15057576739445183,9.615511366002066,-0.08989592306394467
1560244290811740160,0.013990065573151966,-0.008535419430784896,-0.003314775602096226,0.12843552360853383,9.72734730532933,-0.28149216292477125
1560244290821762816,0.013990065573151966,-0.008535419430784896,0.0009152860857038758,0.2737742329635974,9.824579504474446,-0.5026560208048199
1560244290831785472,0.017172148874911253,-0.001092975481303618,-0.003314775602096226,0.14854782394539656,9.873319686102642,-0.6943891887175929
1560244290841807872,0.012929372066530997,-0.007472213069296962,-0.005429806445996277,8.078085639543105e-05,9.904992662981927,-0.835138424347985
1560244290851830784,0.005504511492742059,-0.007472213069296962,-0.004372291139611212,0.036415781711619806,9.917146266020263,-0.7982775081213429
1560244290861853440,-0.0019203490810468793,-0.007472213069296962,-0.007544837521026249,0.03665958580573468,9.871354170622421,-0.6735501212300002
1560244290871875840,-0.006163126353076531,-0.0021561817266047,-0.006487321983511263,0.012438483278459728,9.78628315250197,-0.4892622172782846
1560244290881898752,-0.011466598059025945,-0.00959862579227283,-0.004372291139611212,-0.023837372667282995,9.7253900834144,-0.3049519489020241
1560244290891921152,-0.010405903625106183,-0.0021561817266047,-0.00014222933624614964,-0.050622542994099115,9.674203070373942,-0.18846269407332358
1560244290901943808,-0.007223820786996293,-0.008535419430784896,-0.0022572601801462006,-0.0627347491034643,9.637738817333338,-0.17617515668464773
1560244290911966720,-0.0029810433990542923,-0.003219387971905782,0.0019728016232188617,-0.06523648048736064,9.67842913797385,-0.25163510995259486
1560244290921988608,0.0023224281909827726,-2.9769236002535893e-05,0.004087832467118913,-0.05123488979120698,9.729832629834235,-0.36176750959817866
1560244290932011520,-0.0008596547630394663,-2.9769236002535893e-05,0.004087832467118913,0.0214513131324289,9.741988942424092,-0.5215339903151536
1560244290942034176,0.004443817058822297,0.007412674597291891,0.005145348004633898,0.06544023259481815,9.775736931538798,-0.6085212949363086
1560244290952056832,0.0023224281909827726,-0.001092975481303618,0.005145348004633898,0.08966515089530425,9.82435634040184,-0.6453847167105867
1560244290962079488,-0.004041737717061705,0.008475880958779825,0.005145348004633898,0.12589772921999207,9.81272334938639,-0.5847893596104821
1560244290972102144,-0.0029810433990542923,0.001033437125485398,0.005145348004633898,0.15277034958082192,9.78157561201806,-0.523352195115663
1560244290982124800,-0.0019203490810468793,0.00528626233906343,0.005145348004633898,0.16488244755965042,9.720802399502144,-0.46191504228915925
1560244290992147456,-0.0019203490810468793,0.004223055977575496,0.0019728016232188617,0.23439894789613597,9.71763521852351,-0.4101838087916651
1560244291002170112,-0.005102432150981467,-2.9769236002535893e-05,0.0019728016232188617,0.28711322814052564,9.718296269389867,-0.36568264217175617
1560244291012193024,-0.004041737717061705,0.003159849616087562,-0.001199744758196175,0.202335334818118,9.669681599868035,-0.3411097391892849
1560244291022215424,0.0012617339888877088,-0.005345800578694798,-0.004372291139611212,0.15317854292622182,9.678261304043296,-0.35990131449242385
1560244291032238080,0.0012617339888877088,-0.01172503805050129,-0.003314775602096226,0.12895470694413408,9.726879151576014,-0.40905030446568863
1560244291042260736,0.005504511492742059,-0.012788244411989225,-0.0022572601801462006,0.044943298126531764,9.763490608977097,-0.5309806180308205
1560244291052283648,0.004443817058822297,-0.00959862579227283,-0.008602353058541234,0.02569822935149292,9.790558130207854,-0.6443539340920147
1560244291062306048,0.005504511492742059,-0.013851450773477159,-0.003314775602096226,0.11048846551764396,9.802714173579114,-0.7426597824658456
1560244291072328448,-0.0008596547630394663,-0.019167481651422014,-0.005429806445996277,-0.03314143073217726,9.833969121093835,-0.7733710615781907
1560244291082351104,0.00020103955496794668,-0.00959862579227283,-0.0022572601801462006,-0.162876961821675,9.852447816071573,-0.7697509409450447
1560244291092374016,-0.0029810433990542923,-0.013851450773477159,-0.003314775602096226,0.04304586115038481,9.79166954512797,-0.6960202287851385
1560244291102396672,-0.006163126353076531,-0.0064090067078090285,-0.003314775602096226,0.057883301769756534,9.74509926874678,-0.5935787057541944
1560244291112419072,-0.006163126353076531,-0.0021561817266047,0.0030303169296039267,-0.06323120661351714,9.708637898443008,-0.4707109556109117
1560244291122441728,-0.004041737717061705,-0.014914657134965092,0.0019728016232188617,0.018148195230042782,9.708034213267297,-0.4445076024730608
1560244291132464384,-0.0019203490810468793,-0.005345800578694798,0.0019728016232188617,0.08902588798673351,9.67547211272413,-0.4575535641677988
1560244291142487040,-0.0008596547630394663,-0.0064090067078090285,0.0009152860857038758,0.1374699640551197,9.59039780678046,-0.5312715670316701
1560244291152509696,0.0023224281909827726,-0.013851450773477159,-0.001199744758196175,0.20485434006595143,9.695369939566161,-0.5761730040537655
1560244291162532608,0.005504511492742059,-0.010661831689013357,-0.00014222933624614964,0.25779356825442434,9.815972990844392,-0.6241536755696699
1560244291172555008,0.0012617339888877088,-0.014914657134965092,-0.003314775602096226,0.2214640725407043,9.767364129323223,-0.7224346933328039
1560244291182577664,0.0023224281909827726,-0.014914657134965092,-0.004372291139611212,0.10084147985252347,9.761044455649529,-0.756590284598181
1560244291192600320,-0.0019203490810468793,-0.010661831689013357,-0.0022572601801462006,-0.08082651514188283,9.785351934563217,-0.7443038129001119
1560244291202623232,-0.0019203490810468793,-0.019167481651422014,-0.003314775602096226,-0.0371921373872253,9.762060399330277,-0.7320169739391017
1560244291212645888,-0.006163126353076531,-0.013851450773477159,-0.007544837521026249,-0.029974961900560752,9.756140654668663,-0.7057888125999904
1560244291222668032,-0.005102432150981467,-0.013851450773477159,-0.001199744758196175,-0.0905289782225204,9.78044733830955,-0.6566443805447856
1560244291232690688,-0.0019203490810468793,-0.00959862579227283,0.0009152860857038758,-0.09459932933372779,9.766965195918909,-0.6552511099627217
1560244291242713600,0.0023224281909827726,-0.00959862579227283,-0.0022572601801462006,-0.07607646210179166,9.746946719234984,-0.6827145171081493
1560244291252736256,0.0023224281909827726,-0.00959862579227283,-0.00014222933624614964,-0.027630938065739505,9.746946719234984,-0.7810080959288872
1560244291262758400,0.005504511492742059,-0.007472213069296962,-0.00014222933624614964,0.03488524750755255,9.760981116257279,-0.8723810763047068
1560244291272781056,0.003383122624902535,-0.01172503805050129,0.0019728016232188617,0.10778207804290467,9.785365409789957,-0.9586584728452285
1560244291282755840,0.0023224281909827726,-0.007472213069296962,0.0030303169296039267,0.26277523614689946,9.809560098097785,-1.020307688508362
1560244291292778240,-0.0019203490810468793,-0.003219387971905782,-0.001199744758196175,0.3159891273116494,9.806579494559333,-1.031167341676769
1560244291302800896,-0.0008596547630394663,-0.005345800578694798,-0.001199744758196175,0.1948609333190289,9.757958640603961,-0.9574383450802852
1560244291312823552,-0.005102432150981467,-0.003219387971905782,-0.001199744758196175,0.15805854215318701,9.746946719234984,-0.8552018132229096
1560244291322846208,-0.008284515220916056,-0.0021561817266047,-0.003314775602096226,0.13967130673606992,9.73645108007975,-0.7552278126116834
1560244291332868864,-0.005102432150981467,0.007412674597291891,-0.001199744758196175,0.09122219130888214,9.675677570602106,-0.7060773905952915
1560244291342891520,0.0012617339888877088,-0.0021561817266047,-0.003314775602096226,0.04970234283134545,9.663567079572138,-0.6990939417710788
1560244291352913920,0.0012617339888877088,0.009539087320267758,-0.00014222933624614964,0.01336906942943443,9.687874341447959,-0.7236667423503993
1560244291362936832,0.005504511492742059,0.01379191183672468,0.0009152860857038758,0.03584351925913215,9.712185566229724,-0.8198415619846569
1560244291372959232,0.004443817058822297,0.008475880958779825,-0.0022572601801462006,0.033148836238647325,9.745500484591426,-0.8999382145602756
1560244291382981888,0.005504511492742059,0.011665499113748812,0.0009152860857038758,-0.015303592973569063,9.79412310134631,-0.9490920354342287
1560244291393004544,0.005504511492742059,0.006349468235803957,-0.00014222933624614964,0.048138755398264135,9.814674469414925,-0.9793285866660181
1560244291403026944,-0.005102432150981467,0.01272870640473156,-0.00014222933624614964,0.12864987776019277,9.820659574488355,-0.9893523034355912
1560244291413049600,-0.0019203490810468793,0.01379191183672468,0.005145348004633898,0.12864987776019277,9.796350895638108,-0.9279151506090875
1560244291423072512,-0.0008596547630394663,0.010602293681755692,0.0019728016232188617,0.10799530596664261,9.765133419784371,-0.8455250853232943
1560244291433095424,-0.004041737717061705,0.015918324559700547,-0.00014222933624614964,0.0716603039316987,9.728671398400351,-0.747229206592266
1560244291443117824,-0.0019203490810468793,0.011665499113748812,-0.0022572601801462006,0.05876498961180483,9.692210525210044,-0.684603805755392
1560244291453140480,0.0023224281909827726,0.007412674597291891,-0.00014222933624614964,0.033328706641499124,9.673577994733417,-0.6502063532398581
1560244291463163136,0.004443817058822297,0.009539087320267758,0.0019728016232188617,-0.01511609045077729,9.685731734190261,-0.6624928632339405
1560244291473185792,0.005504511492742059,0.006349468235803957,-0.00014222933624614964,-0.007906995654584779,9.716503081267843,-0.721832004809766
1560244291483208448,0.0023224281909827726,-2.9769236002535893e-05,0.0009152860857038758,0.0043198955564663095,9.75497287783473,-0.7975848845663854
1560244291493231616,0.004443817058822297,0.0020966432545996283,-0.003314775602096226,-0.04413008371388007,9.80359243223434,-0.8835996970976501
1560244291503254016,-0.0019203490810468793,-0.004282594217206864,-0.001199744758196175,-0.044731386346851115,9.824772701484449,-0.9280045124633353
1560244291513276160,0.0023224281909827726,-0.0064090067078090285,0.0019728016232188617,-0.008397358724271414,9.824772701484449,-0.9402911299014766
1560244291523298816,-0.005102432150981467,-0.005345800578694798,-0.00014222933624614964,0.027938917855199856,9.789640823070206,-0.8341909799035985
1560244291533321728,-0.0019203490810468793,-0.010661831689013357,-0.00014222933624614964,0.05109533295035362,9.753176830880024,-0.7369734546188551
1560244291543344384,-0.006163126353076531,-0.00959862579227283,-0.00014222933624614964,0.05109533295035362,9.716714051377597,-0.663250012744534
1560244291553366784,0.00020103955496794668,-0.008535419430784896,0.0030303169296039267,0.07877939007333078,9.69877378081633,-0.6176155722046319
1560244291563389440,0.00020103955496794668,-0.013851450773477159,-0.00014222933624614964,0.10145726985297042,9.690535320424111,-0.5886716822236241
1560244291573412352,0.0012617339888877088,-0.007472213069296962,-0.00014222933624614964,0.053012041396838204,9.702689168396663,-0.6009583210670462
1560244291583435008,0.004443817058822297,-0.00959862579227283,-0.00014222933624614964,0.05206286312285348,9.721652318176336,-0.6476634339452478
1560244291593457408,0.003383122624902535,-0.01810427528993408,0.0009152860857038758,0.08839883619734087,9.74596078000484,-0.721387351482896
1560244291603479808,0.003383122624902535,-0.0064090067078090285,-0.0022572601801462006,0.0898726053552732,9.770266357958894,-0.7715263340021975
1560244291613502720,0.003383122624902535,-0.003219387971905782,0.0009152860857038758,0.09421355076017217,9.785860195516761,-0.7898433806787682
1560244291623525376,0.0012617339888877088,-0.00959862579227283,-0.00014222933624614964,0.10632348923858101,9.785860195516761,-0.7529877225330114
1560244291633548032,-0.0008596547630394663,-0.008535419430784896,-0.0022572601801462006,0.1184334295037976,9.76745138361851,-0.6975220919459093
1560244291643570944,-0.0008596547630394663,-0.007472213069296962,0.0019728016232188617,0.12486169770268479,9.745046071068828,-0.6341713513577516
1560244291653593344,-0.0029810433990542923,-0.008535419430784896,0.004087832467118913,0.10063843559780764,9.732892504448696,-0.5604496057706959
1560244291663616000,-0.0008596547630394663,-0.003219387971905782,-0.00014222933624614964,0.10333041346905425,9.727490951408186,-0.5208582748085173
1560244291673638400,0.003383122624902535,-0.001092975481303618,-0.0022572601801462006,0.12755331561758837,9.727490951408186,-0.5085715093683915
1560244291683661312,0.00020103955496794668,-0.001092975481303618,-0.00014222933624614964,0.10552341627182979,9.739094218927226,-0.5080152918782623
1560244291693683712,0.004443817058822297,-0.0021561817266047,-0.00014222933624614964,0.0898726053552732,9.755548475133688,-0.5167110155435054
1560244291703706624,0.0023224281909827726,-0.0021561817266047,0.0019728016232188617,0.0898726053552732,9.779858338409356,-0.5412864459410281
1560244291713729024,-0.0019203490810468793,-0.003219387971905782,-0.003314775602096226,0.0898726053552732,9.785860195516761,-0.528846996006736
1560244291723751680,0.00020103955496794668,0.001033437125485398,0.0009152860857038758,0.08802815390917385,9.784009265496435,-0.4986595357957418
1560244291733774592,-0.0008596547630394663,0.009539087320267758,-0.00014222933624614964,0.07591648656419255,9.771855056323592,-0.4372245732913556
1560244291743796736,0.00020103955496794668,0.008475880958779825,0.0009152860857038758,0.0771626517375253,9.75299950914454,-0.36901662422941045
1560244291753819392,0.0023224281909827726,0.003159849616087562,0.0009152860857038758,0.08927475089611542,9.728690830294294,-0.2952920484973777
1560244291763842560,-0.0008596547630394663,0.004223055977575496,-0.00014222933624614964,0.07835658648312586,9.727490951408186,-0.2682875581550254
1560244291773865216,0.005504511492742059,0.006349468235803957,0.0009152860857038758,0.06200324160744098,9.727490951408186,-0.25661614698172625
1560244291783885312,0.004443817058822297,0.00528626233906343,0.0030303169296039267,0.037785022096034654,9.727490951408186,-0.26890053721248713
1560244291793907968,0.006565205463012425,0.007412674597291891,-0.00014222933624614964,0.03170669674789384,9.745699927140382,-0.3088004220099402
1560244291803930880,0.0023224281909827726,-0.001092975481303618,-0.00014222933624614964,0.03170669674789384,9.768206238721477,-0.35612832099075253
1560244291813953280,0.004443817058822297,-2.9769236002535893e-05,0.0009152860857038758,0.03170669674789384,9.780361061850032,-0.3929911566527605
1560244291823975680,0.0012617339888877088,-0.0021561817266047,0.005145348004633898,0.04497149866524197,9.785860195516761,-0.40294038254484066
1560244291833998592,-0.0029810433990542923,-0.008535419430784896,-0.004372291139611212,0.06919771327135016,9.785860195516761,-0.39065193690186406
1560244291844021248,-0.0029810433990542923,-0.0021561817266047,-0.004372291139611212,0.05901461882847413,9.762840923446612,-0.34345799153366646
1560244291854043904,0.0023224281909827726,-0.0064090067078090285,0.0009152860857038758,0.055288319288725504,9.742739215011971,-0.30281493265074455
1560244291864066560,-0.0008596547630394663,-0.012788244411989225,0.0030303169296039267,0.06740023845951346,9.730585359275903,-0.2782404328768259
1560244291874088960,0.00020103955496794668,-0.008535419430784896,-0.001199744758196175,0.07048396915281341,9.727490951408186,-0.28114173486707644
1560244291884111872,-0.0008596547630394663,-0.010661831689013357,0.004087832467118913,0.0722342361067177,9.729247278523435,-0.2916529958630001
1560244291894134528,-0.0029810433990542923,-0.010661831689013357,-0.00014222933624614964,0.08434579531794875,9.741400773053615,-0.2916529958630001
1560244291904157184,0.00020103955496794668,-0.008535419430784896,0.0009152860857038758,0.08328814971095132,9.753554302560293,-0.30501253355622354
1560244291914180096,0.0012617339888877088,-0.00959862579227283,0.0019728016232188617,0.07117684230199714,9.765708150532847,-0.3295857825208012
1560244291924202240,-0.0008596547630394663,-0.0021561817266047,0.005145348004633898,0.08190221777960119,9.766403457375873,-0.35415867289759806
1560244291934225152,0.0023224281909827726,-0.0021561817266047,-0.0022572601801462006,0.09401418313497559,9.766403457375873,-0.3661286766789198
1560244291944247808,-0.0008596547630394663,-0.0021561817266047,0.005145348004633898,0.10612574116649763,9.766403457375873,-0.3538417823879617
1560244291954270720,-0.0008596547630394663,-0.0021561817266047,0.0009152860857038758,0.10926123966921075,9.75739584743921,-0.3233428437307779
1560244291964293120,-0.0008596547630394663,-0.0021561817266047,-0.001199744758196175,0.11096003611134994,9.746946719234984,-0.2916529958630001
1560244291974315520,-0.0008596547630394663,-2.9769236002535893e-05,-0.001199744758196175,0.12307202831593014,9.746946719234984,-0.2916529958630001
1560244291984337920,0.0012617339888877088,-2.9769236002535893e-05,0.0030303169296039267,0.11558120509562499,9.746946719234984,-0.2916529958630001
1560244291994360832,0.00020103955496794668,0.010602293681755692,0.0030303169296039267,0.09135535051648375,9.746946719234984,-0.2916529958630001
1560244292004383744,-0.0008596547630394663,0.003159849616087562,0.0009152860857038758,0.07850290926804897,9.758356351000756,-0.3147215518139774
1560244292014406400,0.003383122624902535,0.00528626233906343,0.0030303169296039267,0.07048396915281341,9.766403457375873,-0.33514297049593417
1560244292024428800,0.0012617339888877088,-0.0021561817266047,-0.00014222933624614964,0.07048396915281341,9.766403457375873,-0.34742992809377676
1560244292034451712,-0.006163126353076531,-0.005345800578694798,0.0019728016232188617,0.07048396915281341,9.766403457375873,-0.35971720817027386
1560244292044474112,0.0012617339888877088,0.003159849616087562,-0.001199744758196175,0.0688341299336714,9.764747823151463,-0.3703302111342346
1560244292054496768,0.00020103955496794668,0.0020966432545996283,0.004087832467118913,0.05672167078342836,9.752592819392168,-0.3703302111342346
1560244292064519680,-0.0019203490810468793,0.001033437125485398,-0.00014222933624614964,0.05109533295035362,9.746946719234984,-0.36375068227667096
1560244292074542336,-0.0019203490810468793,-2.9769236002535893e-05,-0.0022572601801462006,0.05109533295035362,9.746946719234984,-0.3514643357008776
1560244292084564736,-0.0008596547630394663,-2.9769236002535893e-05,-0.001199744758196175,0.06241374930556737,9.735589113755433,-0.339178631571515
1560244292094587392,0.00020103955496794668,-0.001092975481303618,0.0009152860857038758,0.07048396915281341,9.731545802416758,-0.33919030108892395
1560244292104610304,0.00020103955496794668,0.001033437125485398,0.0019728016232188617,0.07048396915281341,9.743699947268762,-0.36376539501587607
1560244292114632960,0.0012617339888877088,-0.007472213069296962,-0.001199744758196175,0.07048396915281341,9.746946719234984,-0.38833881287064886
1560244292124655360,0.003383122624902535,-2.9769236002535893e-05,0.0030303169296039267,0.07048396915281341,9.748550453821482,-0.4112900423066133
1560244292134677760,-0.0008596547630394663,-0.008535419430784896,-0.003314775602096226,0.07048396915281341,9.760704373876857,-0.42357673487213277
1560244292144700672,-0.004041737717061705,-0.0064090067078090285,-0.00014222933624614964,0.0769165007737225,9.759948331702045,-0.42281243350054437
1560244292154723328,0.0012617339888877088,-2.9769236002535893e-05,0.0019728016232188617,0.08902788001319833,9.747794411646668,-0.4105257409350249
1560244292164745984,0.0023224281909827726,0.001033437125485398,-0.001199744758196175,0.0898726053552732,9.746946719234984,-0.38680896893735356
1560244292174768384,-0.0008596547630394663,-0.00959862579227283,-0.001199744758196175,0.0898726053552732,9.746946719234984,-0.3703302111342346
1560244292184791296,0.003383122624902535,-0.003219387971905782,-0.00014222933624614964,0.0898726053552732,9.746946719234984,-0.3703302111342346
1560244292194813952,-0.0008596547630394663,-0.003219387971905782,0.0019728016232188617,0.0898726053552732,9.746946719234984,-0.37928304600949775
1560244292204836352,0.0023224281909827726,-0.001092975481303618,0.0019728016232188617,0.0898726053552732,9.746946719234984,-0.38999949962516567
1560244292214858752,0.0023224281909827726,-0.0021561817266047,0.0009152860857038758,0.0898726053552732,9.746946719234984,-0.38999949962516567
1560244292224881664,-0.0008596547630394663,-0.007472213069296962,0.0009152860857038758,0.08348982828354055,9.746946719234984,-0.4029498363364483
1560244292234904576,0.00020103955496794668,-0.0021561817266047,0.0019728016232188617,0.07137690099396994,9.746946719234984,-0.4275263623840112
1560244292244926976,0.0012617339888877088,-0.004282594217206864,-0.004372291139611212,0.09292047240507546,9.75820437514431,-0.4179574392047681
1560244292254950144,-0.0019203490810468793,-0.0021561817266047,-0.00014222933624614964,0.10531961006196842,9.766403457375873,-0.40567010266905046
1560244292264972800,0.00020103955496794668,-2.9769236002535893e-05,0.0009152860857038758,0.09320805203044638,9.766403457375873,-0.3933832275266681
1560244292274995200,-0.0029810433990542923,-0.0021561817266047,-0.001199744758196175,0.0810922146574405,9.757592225848368,-0.38999949962516567
1560244292285008128,-0.0008596547630394663,-0.003219387971905782,-0.00014222933624614964,0.07048396915281341,9.746946719234984,-0.3884804742694524
1560244292295031040,0.00020103955496794668,-0.004282594217206864,0.0009152860857038758,0.07048396915281341,9.746946719234984,-0.37619294166817663
1560244292305053440,0.0023224281909827726,-0.005345800578694798,0.0009152860857038758,0.07048396915281341,9.746946719234984,-0.37675423769959027
1560244292315076352,-0.0008596547630394663,-0.003219387971905782,0.0009152860857038758,0.07048396915281341,9.746946719234984,-0.38904140512217483
1560244292325098496,-0.0008596547630394663,-0.00959862579227283,-0.0022572601801462006,0.05931757597132038,9.758152334000346,-0.40132752737278454
1560244292335121664,-0.0019203490810468793,0.003159849616087562,-0.001199744758196175,0.0549853343973222,9.766403457375873,-0.41361509769102484
1560244292345144320,0.00020103955496794668,-0.004282594217206864,0.0019728016232188617,0.06709761354906393,9.766403457375873,-0.4259027031951228
1560244292355166720,0.0012617339888877088,-0.005345800578694798,-0.001199744758196175,0.07048396915281341,9.766403457375873,-0.4204865314304269
1560244292365189632,0.0012617339888877088,-0.005345800578694798,-0.00014222933624614964,0.07048396915281341,9.766403457375873,-0.4067295310491249
1560244292375212032,0.00020103955496794668,-2.9769236002535893e-05,-0.00014222933624614964,0.07048396915281341,9.766403457375873,-0.38215563500212907
1560244292385234944,-0.0019203490810468793,-0.0064090067078090285,-0.00014222933624614964,0.0767682038916401,9.760097149471981,-0.3639550015853327
1560244292395257600,-0.0029810433990542923,-0.007472213069296962,0.0009152860857038758,0.08888084304573439,9.74794196507658,-0.3516670117175319
1560244292405280000,0.00020103955496794668,-0.0021561817266047,0.0019728016232188617,0.0898726053552732,9.746946719234984,-0.3506608919895484
1560244292415302656,-0.0008596547630394663,-0.005345800578694798,0.0009152860857038758,0.0898726053552732,9.746946719234984,-0.35456143037622523
1560244292425325056,0.003383122624902535,-2.9769236002535893e-05,0.0030303169296039267,0.0898726053552732,9.746946719234984,-0.36685004104554486
1560244292435347712,-0.0008596547630394663,-0.004282594217206864,-0.00014222933624614964,0.0898726053552732,9.755659861108711,-0.3791385375831887
1560244292445370624,0.0012617339888877088,-0.0064090067078090285,0.0019728016232188617,0.08846524711476174,9.766403457375873,-0.388571769744959
1560244292455393280,0.003383122624902535,0.001033437125485398,0.0009152860857038758,0.07635170786115388,9.766403457375873,-0.37628288589890474
1560244292465415680,0.0012617339888877088,-2.9769236002535893e-05,-0.001199744758196175,0.07672938872080844,9.760136100979807,-0.36399437867069195
1560244292475439104,0.0023224281909827726,-0.003219387971905782,0.0009152860857038758,0.0888436124016278,9.747979326492082,-0.35170478133749117
1560244292485461248,0.003383122624902535,-0.0064090067078090285,-0.0022572601801462006,0.07878980366223962,9.746946719234984,-0.3394176569638097
1560244292495483904,-0.0019203490810468793,-0.003219387971905782,0.0030303169296039267,0.07048396915281341,9.746946719234984,-0.33485296231152833
1560244292505506560,0.003383122624902535,-0.001092975481303618,-0.00014222933624614964,0.07048396915281341,9.746946719234984,-0.3471400296106299
1560244292515529472,0.003383122624902535,-0.0021561817266047,-0.001199744758196175,0.06184205023913437,9.755618992600809,-0.3506608919895484
1560244292525551872,0.00020103955496794668,-0.0021561817266047,0.0009152860857038758,0.0524607460982807,9.766403457375873,-0.3506608919895484
1560244292535574528,0.0023224281909827726,-0.004282594217206864,0.004087832467118913,0.06457284525687082,9.766403457375873,-0.3506608919895484
1560244292545597184,0.003383122624902535,-0.0021561817266047,-0.001199744758196175,0.07048396915281341,9.766403457375873,-0.35695154326056716
1560244292555619840,0.004443817058822297,-0.0021561817266047,-0.00014222933624614964,0.07048396915281341,9.766403457375873,-0.36923909501144336
1560244292565642496,-0.0008596547630394663,0.001033437125485398,-0.0022572601801462006,0.07048396915281341,9.766403457375873,-0.3703302111342346
1560244292575664896,-0.0019203490810468793,-0.008535419430784896,0.0019728016232188617,0.07048396915281341,9.762630940557948,-0.3703302111342346
1560244292585687552,-0.0019203490810468793,-0.007472213069296962,-0.001199744758196175,0.07048396915281341,9.750476659289403,-0.3703302111342346
1560244292595710464,0.0023224281909827726,-0.0021561817266047,-0.0022572601801462006,0.07048396915281341,9.746946719234984,-0.3703302111342346
1560244292605733120,0.0023224281909827726,-0.004282594217206864,0.0009152860857038758,0.07180186165103089,9.746946719234984,-0.3703302111342346
1560244292615755776,0.0023224281909827726,-0.0021561817266047,0.0030303169296039267,0.08391414080277262,9.746946719234984,-0.3703302111342346
1560244292625777920,0.0012617339888877088,-0.007472213069296962,-0.00014222933624614964,0.08371918412270177,9.753121754154538,-0.3703302111342346
1560244292635801088,0.003383122624902535,-0.001092975481303618,0.0019728016232188617,0.07160596869765481,9.765277516845027,-0.3703302111342346
1560244292645823744,0.00020103955496794668,-0.003219387971905782,-0.003314775602096226,0.07048396915281341,9.766403457375873,-0.3814801069596752
1560244292655846144,0.0023224281909827726,0.004223055977575496,-0.001199744758196175,0.07048396915281341,9.7626757672568,-0.38999949962516567
1560244292665869056,-0.0019203490810468793,-2.9769236002535893e-05,-0.001199744758196175,0.07048396915281341,9.750520293713855,-0.38999949962516567
1560244292675891456,0.0012617339888877088,-0.0021561817266047,0.0009152860857038758,0.07048396915281341,9.746946719234984,-0.38999949962516567
1560244292685914112,0.0012617339888877088,-0.0021561817266047,0.0009152860857038758,0.07175864261414139,9.746946719234984,-0.3887063751484986
1560244292695937024,0.0012617339888877088,-0.003219387971905782,0.0009152860857038758,0.08387120989279571,9.746946719234984,-0.37641847734682454
1560244292705959680,-0.0008596547630394663,0.006349468235803957,-0.003314775602096226,0.08376116107977241,9.753079629754804,-0.3703302111342346
1560244292715982336,-0.0019203490810468793,-0.0064090067078090285,-0.00014222933624614964,0.0716483419164767,9.765234994791687,-0.3703302111342346
1560244292726004736,-0.0019203490810468793,-0.0021561817266047,-0.00014222933624614964,0.08143163932383912,9.766403457375873,-0.39254248853723694
1560244292736027136,-0.0008596547630394663,-0.001092975481303618,-0.001199744758196175,0.086201634914729,9.766403457375873,-0.40222057196692956
1560244292746050304,0.003383122624902535,-0.005345800578694798,-0.00014222933624614964,0.07408895951087706,9.766403457375873,-0.37764455698294186
1560244292756072960,0.0012617339888877088,-0.008535419430784896,-0.00014222933624614964,0.07899133079870703,9.766403457375873,-0.37896071762073696
1560244292766095360,-0.0008596547630394663,0.003159849616087562,0.0009152860857038758,0.08863938139813979,9.765165901760694,-0.3887484246380705
1560244292776118272,-0.004041737717061705,-0.010661831689013357,-0.003314775602096226,0.07650373019637684,9.752987624488572,-0.37643710877138226
1560244292786108416,0.00020103955496794668,-0.004282594217206864,-0.001199744758196175,0.07654812171712455,9.746946719234984,-0.3703302111342346
1560244292796131328,0.0012617339888877088,-0.0064090067078090285,0.0019728016232188617,0.08865942912607873,9.746946719234984,-0.3703302111342346
1560244292806153728,0.0023224281909827726,-0.001092975481303618,0.004087832467118913,0.0898726053552732,9.757882551519524,-0.3703302111342346
1560244292816176128,-0.0019203490810468793,-0.0064090067078090285,0.0009152860857038758,0.0898726053552732,9.762771147450135,-0.3703302111342346
1560244292826199296,-0.0008596547630394663,-0.0064090067078090285,0.0019728016232188617,0.0898726053552732,9.750617190965098,-0.3703302111342346
1560244292836221952,0.00020103955496794668,-0.001092975481303618,0.0019728016232188617,0.08141901361340394,9.746946719234984,-0.3703302111342346
1560244292846244608,0.0023224281909827726,0.001033437125485398,0.0030303169296039267,0.07166032141170908,9.74812720339198,-0.3703302111342346
1560244292856267520,-0.0008596547630394663,-0.0021561817266047,-0.00014222933624614964,0.08377216873272678,9.76028159317302,-0.3703302111342346
1560244292866289664,0.0012617339888877088,-0.007472213069296962,0.0009152860857038758,0.08386223761097594,9.766403457375873,-0.3703302111342346
1560244292876312576,0.003383122624902535,0.003159849616087562,0.0019728016232188617,0.0717507502366824,9.766403457375873,-0.3703302111342346
1560244292886334976,0.0012617339888877088,-2.9769236002535893e-05,-0.00014222933624614964,0.07048396915281341,9.755520429072437,-0.3593282767189761
1560244292896357888,0.00020103955496794668,-0.0064090067078090285,0.0019728016232188617,0.07048396915281341,9.746946719234984,-0.35428118780977136
1560244292906380288,0.0012617339888877088,-0.001092975481303618,0.0019728016232188617,0.07048396915281341,9.746946719234984,-0.3665684472713031
1560244292916403200,-0.004041737717061705,-0.00959862579227283,0.0009152860857038758,0.07888759376854566,9.746946719234984,-0.36180492999465613
1560244292926425600,0.0012617339888877088,-0.003219387971905782,-0.001199744758196175,0.08874672249996758,9.746946719234984,-0.3506608919895484
1560244292936448512,0.005504511492742059,0.0020966432545996283,-0.00014222933624614964,0.0766354150910134,9.746946719234984,-0.3506608919895484
1560244292946471168,0.00020103955496794668,-0.005345800578694798,0.0019728016232188617,0.07644336542454909,9.746946719234984,-0.35670656049116023
1560244292956493824,0.003383122624902535,-0.001092975481303618,0.0009152860857038758,0.08855402483048666,9.746946719234984,-0.3689925419506381
1560244292966515968,0.0012617339888877088,-0.004282594217206864,-0.001199744758196175,0.0898726053552732,9.757776609484614,-0.3703302111342346
1560244292976539136,-0.004041737717061705,-0.007472213069296962,-0.0022572601801462006,0.0898726053552732,9.766403457375873,-0.3703302111342346
1560244292986561792,-0.0008596547630394663,-0.003219387971905782,-0.001199744758196175,0.0898726053552732,9.766403457375873,-0.3703302111342346
1560244292996584192,0.0012617339888877088,-0.0021561817266047,0.0019728016232188617,0.08152685278781863,9.758028390630693,-0.3703302111342346
1560244293006606848,0.0012617339888877088,-0.001092975481303618,-0.0022572601801462006,0.07155069703124307,9.746946719234984,-0.3703302111342346
1560244293016629504,0.0012617339888877088,-0.004282594217206864,0.0019728016232188617,0.08366063668920318,9.746946719234984,-0.3703302111342346
1560244293026652160,0.0023224281909827726,-0.0064090067078090285,0.0009152860857038758,0.08397480961918094,9.746946719234984,-0.3643470349390646
1560244293036674816,-0.0008596547630394663,-0.001092975481303618,0.0009152860857038758,0.07186522980312904,9.746946719234984,-0.352062148698342
1560244293046697728,0.0012617339888877088,0.003159849616087562,0.0009152860857038758,0.08121337343090934,9.75771381018799,-0.3615456223426537
1560244293056720384,0.003383122624902535,-0.0021561817266047,0.0019728016232188617,0.08642135781871457,9.766403457375873,-0.3703302111342346
1560244293066742784,0.0023224281909827726,-0.0021561817266047,0.0009152860857038758,0.0743108783577921,9.766403457375873,-0.3703302111342346
1560244293076765184,0.00020103955496794668,-0.005345800578694798,0.0019728016232188617,0.07876712825016904,9.75809120395827,-0.3703302111342346
1560244293086788096,0.0012617339888877088,0.003159849616087562,0.0019728016232188617,0.0888673604343236,9.747955495045213,-0.3703302111342346
1560244293096811008,-0.0019203490810468793,-0.003219387971905782,-0.00014222933624614964,0.07675515314518627,9.760110246058748,-0.3703302111342346
1560244293106833664,0.0012617339888877088,-0.004282594217206864,0.0019728016232188617,0.0763243571746902,9.766403457375873,-0.3762551393087443
1560244293116855808,-0.0008596547630394663,-0.0021561817266047,-0.0022572601801462006,0.08843498024531043,9.766403457375873,-0.38854106475979455
1560244293126878720,0.0012617339888877088,-0.001092975481303618,-0.00014222933624614964,0.0898726053552732,9.766403457375873,-0.38999949962516567
1560244293136901632,0.0023224281909827726,-0.003219387971905782,-0.001199744758196175,0.0898726053552732,9.766403457375873,-0.38999949962516567
1560244293146924288,0.00020103955496794668,-0.003219387971905782,-0.003314775602096226,0.0898726053552732,9.766403457375873,-0.38999949962516567
1560244293156947200,0.0023224281909827726,-0.005345800578694798,-0.00014222933624614964,0.08164068906930803,9.758142626758326,-0.38999949962516567
1560244293166969344,0.0012617339888877088,-0.0021561817266047,0.0009152860857038758,0.07143794318378757,9.746946719234984,-0.3890317167325398
1560244293182003456,0.0023224281909827726,-0.003219387971905782,0.0019728016232188617,0.08960638004430366,9.746946719234984,-0.3706002900810139
1560244293192026112,0.004443817058822297,-0.005345800578694798,0.0019728016232188617,0.0898726053552732,9.75883367138555,-0.3823470193697336
1560244293202048768,0.0012617339888877088,-2.9769236002535893e-05,0.0030303169296039267,0.0898726053552732,9.761818938332853,-0.3853648981315155
1560244293212071424,-0.0008596547630394663,0.0020966432545996283,-0.0022572601801462006,0.0898726053552732,9.74966429582967,-0.3730774752259865
1560244293222094080,-0.0029810433990542923,-0.004282594217206864,-0.00014222933624614964,0.08046885029156735,9.746946719234984,-0.3703302111342346
1560244293232116992,-0.0008596547630394663,-0.008535419430784896,0.0019728016232188617,0.07048396915281341,9.746946719234984,-0.3724881479338266
1560244293242139392,0.003383122624902535,-0.005345800578694798,0.0030303169296039267,0.07048396915281341,9.746946719234984,-0.3847749133739525
1560244293252162304,-0.0008596547630394663,0.001033437125485398,-0.001199744758196175,0.07744616440635001,9.746946719234984,-0.3829365259563612
1560244293262185216,0.0023224281909827726,-0.003219387971905782,-0.003314775602096226,0.08955855168757104,9.746946719234984,-0.3706488107575998
1560244293272207360,0.0012617339888877088,0.001033437125485398,0.0009152860857038758,0.07808774529521355,9.75877297322321,-0.3703302111342346
1560244293282246656,0.003383122624902535,-0.001092975481303618,-0.001199744758196175,0.07048396915281341,9.761867493444457,-0.3703302111342346
1560244293292269568,0.003383122624902535,-0.003219387971905782,-0.00014222933624614964,0.07048396915281341,9.749713284271616,-0.3703302111342346
1560244293302292224,0.0023224281909827726,-0.001092975481303618,-0.00014222933624614964,0.07983931097876662,9.756334921387284,-0.3798209723917284
1560244293312314624,0.003383122624902535,-0.004282594217206864,-0.00014222933624614964,0.0898726053552732,9.764317960121879,-0.38999949962516567
1560244293322337024,0.0023224281909827726,-0.003219387971905782,0.004087832467118913,0.0898726053552732,9.7521634982387,-0.38999949962516567
1560244293332359680,0.006565205463012425,0.00528626233906343,0.0030303169296039267,0.0829587946006585,9.746946719234984,-0.38999949962516567
1560244293342382592,0.003383122624902535,-0.003219387971905782,0.0019728016232188617,0.07084586731108788,9.746946719234984,-0.38999949962516567
1560244293352404992,0.00020103955496794668,0.0020966432545996283,-0.00014222933624614964,0.08223354895773967,9.746946719234984,-0.378079843574216
1560244293362427904,0.0012617339888877088,-0.004282594217206864,-0.004372291139611212,0.08539950151024937,9.746946719234984,-0.3703302111342346
1560244293372450816,0.003383122624902535,-2.9769236002535893e-05,-0.00014222933624614964,0.07328711422902834,9.746946719234984,-0.3703302111342346
1560244293382473216,0.00020103955496794668,0.0020966432545996283,-0.001199744758196175,0.07979263511255767,9.756288081573649,-0.3703302111342346
1560244293392495872,0.0023224281909827726,-0.001092975481303618,0.0030303169296039267,0.0898726053552732,9.766403457375873,-0.3703302111342346
1560244293402518528,0.0023224281909827726,-0.004282594217206864,-0.0022572601801462006,0.0898726053552732,9.766403457375873,-0.3703302111342346
1560244293412541440,0.0023224281909827726,-0.001092975481303618,-0.001199744758196175,0.08300491432467816,9.766403457375873,-0.37729731262279703
1560244293422563840,-0.0019203490810468793,-0.0064090067078090285,0.0019728016232188617,0.07089310328871898,9.766403457375873,-0.38958444323509356
1560244293432586496,0.00020103955496794668,-0.0064090067078090285,-0.00014222933624614964,0.08218728200700656,9.77814787772639,-0.38999949962516567
1560244293442609152,0.0023224281909827726,-0.003219387971905782,-0.00014222933624614964,0.08544533796757543,9.776974559483094,-0.3855081471357074
1560244293452632064,-0.0019203490810468793,-0.0021561817266047,0.0009152860857038758,0.07333223066452134,9.752663251105652,-0.3732197014927308
1560244293462654464,0.0012617339888877088,-2.9769236002535893e-05,0.004087832467118913,0.07974797610476517,9.737650636389294,-0.37972831543704333
1560244293472677376,0.0012617339888877088,-0.008535419430784896,0.0019728016232188617,0.08788487686297418,9.731480272576063,-0.3879829985805119
1560244293482699520,0.00020103955496794668,-2.9769236002535893e-05,0.0009152860857038758,0.07577353392888496,9.755787433702725,-0.37569634284590286
1560244293492722432,0.003383122624902535,-0.001092975481303618,0.006202863542148884,0.07048396915281341,9.759556545319636,-0.3772519205970936
1560244293502745344,-0.0008596547630394663,-0.004282594217206864,0.0030303169296039267,0.07048396915281341,9.747401252417095,-0.3895400010071076
1560244293512767744,0.004443817058822297,-2.9769236002535893e-05,0.0009152860857038758,0.07048396915281341,9.75864655293048,-0.3663441898904941
1560244293522790144,0.00020103955496794668,0.003159849616087562,0.0019728016232188617,0.07486609136649722,9.766403457375873,-0.36399756042247766
1560244293532813056,0.0012617339888877088,-0.0064090067078090285,-0.001199744758196175,0.08697865864515154,9.766403457375873,-0.40086127297766944
1560244293542835712,-0.0029810433990542923,-0.008535419430784896,-0.001199744758196175,0.0806538619252698,9.766403457375873,-0.40031660252887075
1560244293552858368,-0.0019203490810468793,-0.003219387971905782,0.0030303169296039267,0.07048396915281341,9.766403457375873,-0.3880282734269529
1560244293562881024,0.00020103955496794668,-2.9769236002535893e-05,-0.00014222933624614964,0.07048396915281341,9.766403457375873,-0.3757390242914839
1560244293572903680,-0.0019203490810468793,-0.003219387971905782,-0.001199744758196175,0.07048396915281341,9.766403457375873,-0.3703302111342346
1560244293582926592,0.00020103955496794668,-0.004282594217206864,-0.001199744758196175,0.07048396915281341,9.766403457375873,-0.3703302111342346
1560244293592948992,0.00020103955496794668,-0.001092975481303618,0.0030303169296039267,0.07048396915281341,9.766403457375873,-0.38211862946945474
1560244293602971904,0.0012617339888877088,-0.0021561817266047,0.005145348004633898,0.07482966317925757,9.762042499244005,-0.38559090127885176
1560244293612994560,0.003383122624902535,0.001033437125485398,0.0019728016232188617,0.08694291427597753,9.749886700756548,-0.3733023097607828
1560244293623016960,-0.005102432150981467,-0.003219387971905782,-0.00014222933624614964,0.08068918182329933,9.756162399236025,-0.3703302111342346
1560244293633039360,0.00020103955496794668,-0.004282594217206864,-0.0022572601801462006,0.07048396915281341,9.76448858006341,-0.3703302111342346
1560244293643062528,0.0023224281909827726,-0.003219387971905782,-0.001199744758196175,0.07048396915281341,9.752331914068867,-0.3703302111342346
1560244293653085184,0.0012617339888877088,0.001033437125485398,0.0030303169296039267,0.07048396915281341,9.746946719234984,-0.3771749691821963
1560244293663107584,-0.0008596547630394663,-0.001092975481303618,0.005145348004633898,0.07048396915281341,9.746946719234984,-0.3894633780680458
1560244293673130496,-0.0019203490810468793,-0.003219387971905782,-0.00014222933624614964,0.07048396915281341,9.758573451253747,-0.37824575423229273
1560244293683153152,-0.0008596547630394663,-0.0021561817266047,-0.00014222933624614964,0.07048396915281341,9.766403457375873,-0.3703302111342346
1560244293693175808,-0.0008596547630394663,-0.005345800578694798,-0.003314775602096226,0.07048396915281341,9.766403457375873,-0.3703302111342346
1560244293703198208,0.0012617339888877088,0.0020966432545996283,-0.00014222933624614964,0.07963228675467247,9.766403457375873,-0.3703302111342346
1560244293713221120,0.0012617339888877088,-0.0021561817266047,0.0019728016232188617,0.08800030103006018,9.764524576644122,-0.3703302111342346
1560244293723244032,0.0023224281909827726,-0.004282594217206864,0.0030303169296039267,0.07588737374048957,9.752369103101175,-0.3703302111342346
1560244293733266176,0.0023224281909827726,-0.001092975481303618,0.0009152860857038758,0.07048396915281341,9.746946719234984,-0.37713537108333034
1560244293743289088,-0.0029810433990542923,-0.001092975481303618,0.0019728016232188617,0.07048396915281341,9.746946719234984,-0.3894225385059149
1560244293753312000,0.0012617339888877088,0.003159849616087562,0.0019728016232188617,0.07048396915281341,9.746946719234984,-0.38999949962516567
1560244293763334400,-0.0019203490810468793,-0.004282594217206864,-0.00014222933624614964,0.07048396915281341,9.746946719234984,-0.3856629935464587
1560244293773357056,0.00020103955496794668,-0.005345800578694798,-0.00014222933624614964,0.07048396915281341,9.746946719234984,-0.3733563681136171
1560244293783354880,0.0023224281909827726,-0.001092975481303618,0.0030303169296039267,0.07048396915281341,9.746946719234984,-0.3703302111342346
1560244293793377280,0.0012617339888877088,0.0020966432545996283,0.0009152860857038758,0.07231009038758063,9.748779254659723,-0.3721827656414719
1560244293803400192,0.0012617339888877088,-0.0064090067078090285,-0.0022572601801462006,0.08442247766880165,9.760934186297558,-0.38447048084023333
1560244293813422848,0.0012617339888877088,-0.0021561817266047,0.004087832467118913,0.0898726053552732,9.766403457375873,-0.38324089463360206
1560244293823445504,0.003383122624902535,0.001033437125485398,-0.00014222933624614964,0.0898726053552732,9.766403457375873,-0.37095310652550795
1560244293833468160,0.0023224281909827726,-2.9769236002535893e-05,0.0009152860857038758,0.07837398290124492,9.766403457375873,-0.39366034327296506
1560244293843491072,0.00020103955496794668,-0.003219387971905782,-0.00014222933624614964,0.07048396915281341,9.762165522051175,-0.4011003249026057
1560244293853513472,0.003383122624902535,-0.001092975481303618,-0.001199744758196175,0.07048396915281341,9.750010084875665,-0.3765238723844887
1560244293863536384,-0.0008596547630394663,-0.0064090067078090285,0.0019728016232188617,0.07954425456076318,9.756038828593445,-0.3703302111342346
1560244293873559040,0.00020103955496794668,-0.0064090067078090285,-0.00014222933624614964,0.0898726053552732,9.766403457375873,-0.3703302111342346
1560244293883581696,0.00020103955496794668,-0.0021561817266047,0.0019728016232188617,0.0898726053552732,9.766403457375873,-0.3703302111342346
1560244293893604352,0.00020103955496794668,-0.005345800578694798,0.0009152860857038758,0.0898726053552732,9.766403457375873,-0.3770461329349319
1560244293903627008,-0.0008596547630394663,-2.9769236002535893e-05,-0.001199744758196175,0.0898726053552732,9.766403457375873,-0.3893333732473187
1560244293913649408,0.005504511492742059,-0.001092975481303618,-0.0022572601801462006,0.0898726053552732,9.75490821270316,-0.3783786779795147
1560244293923672320,0.0012617339888877088,-0.003219387971905782,-0.00014222933624614964,0.08569336419071968,9.751140639844833,-0.3703302111342346
1560244293933694976,0.003383122624902535,-0.005345800578694798,0.0019728016232188617,0.07358036501287216,9.76329618552856,-0.3703302111342346
1560244293943717120,0.00020103955496794668,-0.004282594217206864,0.004087832467118913,0.07048396915281341,9.757356030768229,-0.3611839338859476
1560244293953740032,-0.0008596547630394663,-0.007472213069296962,-0.0022572601801462006,0.0722240710138682,9.746946719234984,-0.3541914747310698
1560244293963762944,0.0012617339888877088,-0.001092975481303618,-0.001199744758196175,0.0843373583357563,9.746946719234984,-0.3787687504175773
1560244293973785600,-0.0019203490810468793,-2.9769236002535893e-05,-0.00014222933624614964,0.0832954396758701,9.746946719234984,-0.38999949962516567
1560244293983808256,0.00020103955496794668,-0.005345800578694798,0.0030303169296039267,0.07118352050508214,9.746946719234984,-0.38999949962516567
1560244293993830912,-0.0019203490810468793,-0.003219387971905782,-0.0022572601801462006,0.07048396915281341,9.746946719234984,-0.38999949962516567
1560244294003853568,0.00020103955496794668,-0.004282594217206864,-0.0022572601801462006,0.07048396915281341,9.746946719234984,-0.3858031704051003
1560244294013876224,0.003383122624902535,-0.004282594217206864,-0.00014222933624614964,0.07048396915281341,9.746946719234984,-0.37351611268042895
1560244294023898624,-0.0019203490810468793,-0.001092975481303618,-0.001199744758196175,0.07945497688646361,9.75594923733429,-0.3703302111342346
1560244294033921792,0.005504511492742059,-0.001092975481303618,0.0019728016232188617,0.0898726053552732,9.764702716805147,-0.36861088856198804
1560244294043944192,0.00020103955496794668,-0.001092975481303618,-0.00014222933624614964,0.0898726053552732,9.752548002189098,-0.3563233736062707
1560244294053967104,-0.0029810433990542923,-0.003219387971905782,0.0009152860857038758,0.08334172968022295,9.753500534393165,-0.36391172371463926
1560244294063989504,0.0012617339888877088,-0.0064090067078090285,0.0019728016232188617,0.07122991864426376,9.765654887761697,-0.3884860040882062
1560244294074012160,-0.0019203490810468793,-0.005345800578694798,0.0009152860857038758,0.07048396915281341,9.766403457375873,-0.37846801751835585
1560244294084034816,-0.0029810433990542923,-0.003219387971905782,0.004087832467118913,0.07457461268951783,9.762298445590089,-0.3703302111342346
1560244294094057216,-0.0019203490810468793,-0.004282594217206864,-0.0022572601801462006,0.08668606376378489,9.750144453447604,-0.3703302111342346
1560244294104079872,0.003383122624902535,-2.9769236002535893e-05,0.004087832467118913,0.08094714249465175,9.746946719234984,-0.3703302111342346
1560244294114103040,0.0023224281909827726,-0.0021561817266047,0.0009152860857038758,0.07048396915281341,9.746946719234984,-0.3703302111342346
1560244294124125440,0.0012617339888877088,0.003159849616087562,0.0009152860857038758,0.07048396915281341,9.746946719234984,-0.3703302111342346
1560244294134148352,0.00020103955496794668,-0.0021561817266047,0.004087832467118913,0.07697066779432117,9.746946719234984,-0.3769108053339112
1560244294144171008,-0.0008596547630394663,-0.007472213069296962,-0.0022572601801462006,0.0890836669721687,9.746946719234984,-0.38919914128655897
1560244294154193408,0.0023224281909827726,0.001033437125485398,0.004087832467118913,0.07854984234340784,9.758309253074536,-0.3785128385795286
1560244294164216320,0.0012617339888877088,-0.004282594217206864,-0.0022572601801462006,0.0745303032513563,9.762342910663675,-0.3662252995809316
1560244294174238976,0.0023224281909827726,-2.9769236002535893e-05,0.0030303169296039267,0.08664222242214425,9.750188448780495,-0.35393804011939983
1560244294184261888,0.0012617339888877088,-0.003219387971905782,0.0009152860857038758,0.08099064901192057,9.755859873153954,-0.359671429508655
1560244294194284288,0.0023224281909827726,-0.003219387971905782,0.0030303169296039267,0.07048396915281341,9.764792831836372,-0.3703302111342346
1560244294204306944,0.0023224281909827726,0.001033437125485398,-0.00014222933624614964,0.07048396915281341,9.752639272972694,-0.3703302111342346
1560244294214329600,-0.0008596547630394663,-2.9769236002535893e-05,-0.00014222933624614964,0.07048396915281341,9.75340839646218,-0.3703302111342346
1560244294224352256,0.0012617339888877088,-0.003219387971905782,0.0030303169296039267,0.07048396915281341,9.765563508729684,-0.3703302111342346
1560244294234374912,-0.0008596547630394663,-0.003219387971905782,0.0019728016232188617,0.07048396915281341,9.755088751036917,-0.3703302111342346
1560244294244397312,-0.0008596547630394663,-0.001092975481303618,-0.00014222933624614964,0.07048396915281341,9.75095927931436,-0.3662738105075228
1560244294254419712,0.0012617339888877088,-2.9769236002535893e-05,-0.00014222933624614964,0.07048396915281341,9.7631143551994,-0.3539859303356496
1560244294264443136,-0.005102432150981467,-0.007472213069296962,0.0009152860857038758,0.07048396915281341,9.766403457375873,-0.35962556919201777
1560244294274465536,0.00020103955496794668,-2.9769236002535893e-05,0.0030303169296039267,0.07048396915281341,9.766403457375873,-0.3703302111342346
1560244294284456192,0.0012617339888877088,-0.0021561817266047,0.0009152860857038758,0.07048396915281341,9.766403457375873,-0.3703302111342346
1560244294294478592,-0.0008596547630394663,-0.003219387971905782,0.004087832467118913,0.07688316710760745,9.75998178245155,-0.3703302111342346
1560244294304501504,-0.0019203490810468793,0.003159849616087562,-0.00014222933624614964,0.08899663445368035,9.747825766955172,-0.3703302111342346
1560244294314524160,0.0023224281909827726,-0.0021561817266047,0.0009152860857038758,0.07863556406078492,9.746946719234984,-0.3703302111342346
1560244294324547072,0.0012617339888877088,-0.005345800578694798,0.0030303169296039267,0.07048396915281341,9.746946719234984,-0.3703302111342346
1560244294334569728,0.00020103955496794668,-0.001092975481303618,-0.00014222933624614964,0.07048396915281341,9.746946719234984,-0.3703302111342346
1560244294344592384,0.0012617339888877088,-0.003219387971905782,0.004087832467118913,0.07048396915281341,9.755776915951442,-0.3792568711627565
1560244294354615040,0.003383122624902535,-0.004282594217206864,0.0019728016232188617,0.07200838705821176,9.766403457375873,-0.3884530156306794
1560244294364637696,0.004443817058822297,-0.0021561817266047,0.0009152860857038758,0.08412246643574223,9.766403457375873,-0.3761635838423592
1560244294374660352,-0.004041737717061705,-0.0021561817266047,-0.001199744758196175,0.08350875948194528,9.766403457375873,-0.3703302111342346
1560244294384683008,0.003383122624902535,-0.0021561817266047,-0.00014222933624614964,0.0713945719856207,9.766403457375873,-0.3703302111342346
1560244294394705408,-0.0019203490810468793,0.001033437125485398,-0.0022572601801462006,0.08168569040007265,9.766403457375873,-0.38169407832461394
1560244294404728064,0.00020103955496794668,0.0020966432545996283,-0.001199744758196175,0.08594612124471619,9.762463181620749,-0.38999949962516567
1560244294414750720,0.0023224281909827726,-0.0021561817266047,-0.00014222933624614964,0.07383240195515249,9.750306913295937,-0.38999949962516567
1560244294424773632,0.0012617339888877088,-0.001092975481303618,-0.001199744758196175,0.07924967408039726,9.746946719234984,-0.38110691031426047
1560244294434796288,0.0023224281909827726,-0.0021561817266047,0.0009152860857038758,0.0898726053552732,9.748442902029423,-0.3688176813016651
1560244294444818688,0.0023224281909827726,-0.0021561817266047,-0.001199744758196175,0.0898726053552732,9.760598881180908,-0.3565288879944127
1560244294454841600,0.00020103955496794668,-0.004282594217206864,0.0009152860857038758,0.08354332742242783,9.760051948065247,-0.3506608919895484
1560244294464864256,0.0012617339888877088,-0.004282594217206864,0.0019728016232188617,0.07143050825913214,9.747896583028364,-0.3506608919895484
1560244294474886912,0.0012617339888877088,-0.005345800578694798,0.0009152860857038758,0.07048396915281341,9.746946719234984,-0.37331538891646615
1560244294484910080,0.00020103955496794668,0.001033437125485398,-0.0022572601801462006,0.07048396915281341,9.75085021105995,-0.3860533650639
1560244294494932480,0.003383122624902535,-0.004282594217206864,0.0009152860857038758,0.07048396915281341,9.76300510630781,-0.37376568665264615
1560244294504954880,0.0012617339888877088,-2.9769236002535893e-05,-0.0022572601801462006,0.07048396915281341,9.757647173451206,-0.3703302111342346
1560244294514977536,0.003383122624902535,0.001033437125485398,0.0009152860857038758,0.07193324752317501,9.748401088147316,-0.3703302111342346
1560244294525000448,0.0023224281909827726,-0.004282594217206864,0.0009152860857038758,0.08404610292874193,9.760556489553768,-0.3703302111342346
1560244294535022848,0.003383122624902535,-2.9769236002535893e-05,-0.001199744758196175,0.08358692993906484,9.760095703734269,-0.3703302111342346
1560244294545045504,0.0023224281909827726,-0.0021561817266047,0.0019728016232188617,0.07147429078497056,9.747940519338867,-0.3703302111342346
1560244294555068160,-0.0008596547630394663,-0.001092975481303618,0.0009152860857038758,0.07048396915281341,9.758109098834538,-0.3703302111342346
1560244294565091072,0.00020103955496794668,-2.9769236002535893e-05,-0.0022572601801462006,0.07048396915281341,9.76254143061573,-0.3703302111342346
1560244294575113728,0.003383122624902535,-0.003219387971905782,0.0030303169296039267,0.07048396915281341,9.750385704279786,-0.3703302111342346
1560244294585136384,0.00020103955496794668,-0.0021561817266047,0.0019728016232188617,0.07048396915281341,9.746946719234984,-0.3703302111342346
1560244294595159040,0.0023224281909827726,-0.001092975481303618,0.0030303169296039267,0.07048396915281341,9.746946719234984,-0.3703302111342346
1560244294605181440,-0.0019203490810468793,-0.0021561817266047,0.0009152860857038758,0.07048396915281341,9.746946719234984,-0.3703302111342346
1560244294615204352,0.00020103955496794668,-2.9769236002535893e-05,-0.001199744758196175,0.07673169394165111,9.753216388948903,-0.3703302111342346
