#timestamp [ns],w_RS_S_x [rad s^-1],w_RS_S_y [rad s^-1],w_RS_S_z [rad s^-1],a_RS_S_x [m s^-2],a_RS_S_y [m s^-2],a_RS_S_z [m s^-2]
1560051885995513088,0.005504511492742059,0.5262573074323029,-0.006487321983511263,0.26082573416045624,9.652712872767163,-0.1394356277915719
1560051886005535488,0.007625899896932187,0.5262573074323029,-0.004372291139611212,0.17611808231813592,9.725573852987491,-0.26219825662650204
1560051886015557888,0.009747288764771711,0.5145620913666349,-0.005429806445996277,0.07545489874040306,9.798432552766172,-0.3849565998819705
1560051886025580288,0.008686594330851949,0.5081828122999354,-0.007544837521026249,-0.04554273845752452,9.87128613660482,-0.5077057583291849
1560051886035602688,0.004443817058822297,0.5007403696285095,-0.009659868133796379,-0.09563080522474571,9.883143886221205,-0.5071283720973191
1560051886045624832,-0.0029810433990542923,0.4911715105161285,-0.009659868133796379,-0.11487125766250676,9.868875399728777,-0.4652669869921127
1560051886055647232,-0.0029810433990542923,0.48479226119326313,-0.0022572601801462006,-0.07856604062936626,9.80815416398448,-0.36705162724176876
1560051886065669888,-0.0029810433990542923,0.4773498185218372,-0.007544837521026249,-0.09587366379897933,9.747429584584028,-0.23774956773300615
1560051886075692288,-0.005102432150981467,0.46778098915329025,-0.006487321983511263,-0.14092576466884021,9.687828750194164,-0.093067757623715
1560051886085714176,-0.0008596547630394663,0.45395929715899896,-0.006487321983511263,-0.08042713001367516,9.663544296083908,-0.03169336978908262
1560051886095736576,-0.0008596547630394663,0.45183288071804384,-0.008602353058541234,-0.03547895425001488,9.66006931115532,-0.01765150546197242
1560051886105759232,0.005504511492742059,0.4401376051647077,-0.005429806445996277,-0.011277772823318183,9.684355498425141,-0.06675451967825773
1560051886115781632,0.006565205463012425,0.43163196914472124,-0.006487321983511263,-0.0070705737685035075,9.718671530540632,-0.17670181957464717
1560051886125803520,0.007625899896932187,0.436947995375192,-0.003314775602096226,0.01729873439205116,9.757815430543266,-0.30219955439390717
1560051886135825920,0.010807983198691473,0.43056874605232665,-0.005429806445996277,0.1262208616802209,9.806394698726809,-0.4372536963984751
1560051886145848320,0.013990065573151966,0.4231263331247348,-0.0022572601801462006,0.15990372294099373,9.847422627867676,-0.534139955135097
1560051886155870720,0.006565205463012425,0.4167470838018694,-0.006487321983511263,0.1485112091780249,9.88243233844587,-0.605882225315272
1560051886165893120,0.0012617339888877088,0.41036783447900405,-0.004372291139611212,0.1727143372613576,9.845999532317004,-0.5813287427736471
1560051886175915520,-0.0008596547630394663,0.41036783447900405,-0.010717383671311365,0.17166261850180897,9.81463535435387,-0.5209055860442307
1560051886185937920,-0.005102432150981467,0.41249425091995917,-0.007544837521026249,0.13535631388441768,9.790346744417812,-0.4104100405882603
1560051886195960064,-0.007223820786996293,0.408241447781883,-0.007544837521026249,0.17798080715475192,9.736356481813344,-0.3299454558291614
1560051886205982464,-0.006163126353076531,0.40292539180757814,-0.007544837521026249,0.19464078339527646,9.685989059605594,-0.26936700001569314
1560051886216004864,-0.0029810433990542923,0.408241447781883,-0.008602353058541234,0.04942422055008083,9.673845173082327,-0.25709045059113717
1560051886226027264,-0.0008596547630394663,0.39760936557710735,-0.008602353058541234,0.08166041684737613,9.698801253469735,-0.31982597095468546
1560051886236049664,0.003383122624902535,0.408241447781883,-0.008602353058541234,0.2244011970673038,9.747272917018392,-0.4302174256674494
1560051886246071808,0.0023224281909827726,0.40398861489997273,-0.007544837521026249,0.09115464996710029,9.783741135165537,-0.5285267796671332
1560051886256077824,0.004443817058822297,0.3997357820180625,-0.007544837521026249,0.03200697661364728,9.815196694001134,-0.621646820325139
1560051886266100480,0.003383122624902535,0.39654614248471276,-0.008602353058541234,0.08041796413634411,9.83948660306446,-0.7075924244967923
1560051886276122624,-0.0008596547630394663,0.39760936557710735,-0.004372291139611212,0.06065967570978591,9.83445807625176,-0.7342561845249186
1560051886286144768,-0.004041737717061705,0.3933565326951971,-0.004372291139611212,0.02925656040462531,9.81493785464072,-0.7365900924156842
1560051886296167168,-0.0008596547630394663,0.39760936557710735,-0.003314775602096226,0.017154999899164254,9.766362192935881,-0.6997598590368629
1560051886306189568,-0.004041737717061705,0.38378770332665013,-0.003314775602096226,0.01231806054543405,9.732367239960507,-0.6408215956063097
1560051886316212224,-0.006163126353076531,0.37847167709617935,-0.004372291139611212,0.01231806054543405,9.70807985538589,-0.5671615830846588
1560051886326234368,-0.004041737717061705,0.3667764015428432,-0.008602353058541234,-0.07224168920721066,9.671667026570558,-0.48123935329449097
1560051886336256768,-0.004041737717061705,0.3593339291275832,-0.010717383671311365,-0.13778344297658543,9.64966399884463,-0.41474885037649
1560051886346278912,-0.0008596547630394663,0.34870187666664165,-0.006487321983511263,-0.17408672301111675,9.64966399884463,-0.3779200782273855
1560051886356301568,0.010807983198691473,0.3465754602256865,-0.006487321983511263,-0.1815682939250749,9.67858953458171,-0.44830764321513783
1560051886366323968,0.011868676705312442,0.3306273815342742,-0.0022572601801462006,-0.19085296141891828,9.719680811606569,-0.548877483107205
1560051886376346112,0.01611145444099149,0.32212174551428774,-0.007544837521026249,-0.2392580566404488,9.780399701323747,-0.6593654974312845
1560051886386368512,0.012929372066530997,0.31574249619142236,-0.005429806445996277,-0.2305818129726109,9.82679850685032,-0.7481395381700089
1560051886396390656,0.009747288764771711,0.2955415548742657,-0.001199744758196175,-0.18217743645006368,9.86322869415783,-0.8217971207322748
1560051886406413312,0.005504511492742059,0.290225558387629,-0.001199744758196175,-0.16961820694013782,9.863687148080317,-0.7863548087305108
1560051886416435456,0.0023224281909827726,0.2849095321571582,-0.001199744758196175,-0.1202121216053558,9.826251866148597,-0.7258716491010991
1560051886426457856,-0.0029810433990542923,0.2689614237219118,-0.003314775602096226,-0.011298075877471198,9.729099937110217,-0.6276577572001346
1560051886436480256,0.0012617339888877088,0.2625821743990464,-0.001199744758196175,-0.04454721170912106,9.736566243772755,-0.5102143828852161
1560051886446502656,-0.0029810433990542923,0.25088689884571025,-0.004372291139611212,-0.09306157067813896,9.748818628674409,-0.4074466441816712
1560051886456525056,0.004443817058822297,0.2445076643947619,-0.004372291139611212,-0.0325546653671292,9.651668747727703,-0.39517009475711523
1560051886466547200,0.007625899896932187,0.23387561193382034,-0.004372291139611212,-0.0701034289896318,9.659948548157278,-0.41131458751237165
1560051886476569600,0.009747288764771711,0.22536996104191687,-0.004372291139611212,-0.17900615123411703,9.744946970450624,-0.44814095508930957
1560051886486592256,0.010807983198691473,0.21261149214002018,-0.003314775602096226,-0.1815682939250749,9.723231079880128,-0.5688840227698111
1560051886496614656,0.009747288764771711,0.1987898001457289,-0.003314775602096226,-0.1815682939250749,9.753485717309738,-0.6640797060617031
1560051886506636800,0.009747288764771711,0.1892209559052649,-0.003314775602096226,-0.1815682939250749,9.874924694232647,-0.7131861938197859
1560051886516659200,0.007625899896932187,0.18177849836192195,-0.00014222933624614964,-0.1815682939250749,9.846340782359496,-0.7054194109703327
1560051886526681600,0.0023224281909827726,0.17327284747001848,-0.0022572601801462006,-0.17539706218218443,9.787924601060103,-0.6704309955682964
1560051886536704000,0.003383122624902535,0.1679568212395477,-0.003314775602096226,-0.13908914492873622,9.800070355549323,-0.5844861596834574
1560051886546726144,0.00020103955496794668,0.15945117034764422,-0.003314775602096226,-0.10965675387417326,9.763936151956099,-0.5264369496006558
1560051886556748544,0.0023224281909827726,0.14881910301478563,0.0009152860857038758,-0.08545364465060214,9.691071750955784,-0.4896067353546022
1560051886566770944,0.00020103955496794668,0.14031346699479919,-0.001199744758196175,-0.08462512990947602,9.747218661205213,-0.5002024689271317
1560051886576793344,0.005504511492742059,0.13074459301050112,-0.00014222933624614964,-0.06702343435340426,9.777028436344608,-0.5303358977176027
1560051886586815488,0.0012617339888877088,0.12542856678003034,-0.0022572601801462006,-0.018616180549345857,9.752739798558505,-0.5917208494390623
1560051886596838144,0.004443817058822297,0.11692292332408538,-0.001199744758196175,-0.01628656085877503,9.783939686164022,-0.6344099594436059
1560051886606860544,0.0023224281909827726,0.1137332986626527,-0.00014222933624614964,-0.022600083521606737,9.820900114652924,-0.6634121969796009
1560051886616882944,0.0023224281909827726,0.10416444698623017,-0.0022572601801462006,0.0016055532941811543,9.796610062036263,-0.6511341891644862
1560051886626905088,0.0012617339888877088,0.09672199687884575,-0.0022572601801462006,-0.007918966377553079,9.779090825695127,-0.6251704108694043
1560051886636927488,-0.0008596547630394663,0.09565878865836819,-0.0022572601801462006,-0.044224185768198775,9.766946578546266,-0.588339611501106
1560051886646949888,-0.0019203490810468793,0.08821634598694228,-0.001199744758196175,-0.03428664061777989,9.74320040589255,-0.539778221003895
1560051886656972288,0.0012617339888877088,0.0850267287614681,0.0019728016232188617,-0.022184279449178418,9.727490951408186,-0.4993416543070497
1560051886666994432,0.005504511492742059,0.07971070253099732,0.0009152860857038758,-0.010081568053726547,9.727490951408186,-0.4747858199223855
1560051886677017088,0.0023224281909827726,0.0722682524236129,-0.001199744758196175,0.002021177361988995,9.73661418289885,-0.48712339425913587
1560051886687039488,0.0023224281909827726,0.07545787708504559,0.0030303169296039267,0.01412398487027519,9.750571254382663,-0.5116794223686352
1560051886697061632,0.0023224281909827726,0.06907864263409724,-0.0022572601801462006,0.026227305819684833,9.774862921304335,-0.5362364576305652
1560051886707084032,0.004443817058822297,0.06588901797266455,-0.001199744758196175,0.018459259480527977,9.785860195516761,-0.560793064652265
1560051886717106432,0.0023224281909827726,0.06269940074719038,-0.003314775602096226,-0.005745657301679981,9.785860195516761,-0.5853483510222485
1560051886727129088,0.0012617339888877088,0.05419374985528691,-0.003314775602096226,0.015808983137567664,9.785860195516761,-0.5982978347897266
1560051886737151232,0.0023224281909827726,0.05632016257826278,-0.003314775602096226,0.027573071604227232,9.785860195516761,-0.597974838957353
1560051886747173632,0.00020103955496794668,0.044624894460885134,-0.003314775602096226,0.015526957208087683,9.785860195516761,-0.5735338538970746
1560051886757270784,0.00020103955496794668,0.0414352735174317,-0.00014222933624614964,0.003349507287993639,9.767860083759825,-0.5397280330255533
1560051886767293440,-0.004041737717061705,0.0456881026813627,-0.00014222933624614964,-0.005388323344608861,9.746946719234984,-0.5028954826007233
1560051886777315584,-0.0008596547630394663,0.0403720690149334,-0.00014222933624614964,0.006714205975746323,9.746946719234984,-0.4660622971154192
1560051886787337728,0.0012617339888877088,0.03718244807147997,-0.001199744758196175,0.005819868264531892,9.746946719234984,-0.4555996199506241
1560051886797360384,0.003383122624902535,0.03292962634350749,0.0019728016232188617,-0.0062823383234782496,9.746946719234984,-0.4678770082855674
1560051886807382784,0.0023224281909827726,0.023360769090116085,0.0030303169296039267,0.004242605544401009,9.758299636818967,-0.5031075085804884
1560051886817404928,0.00020103955496794668,0.022297560869638522,-0.00014222933624614964,0.004266666672970869,9.770443294438415,-0.5317685496380454
1560051886827427328,0.004443817058822297,0.01698153092118848,0.0019728016232188617,-0.019936454337951236,9.7825873612718,-0.544045281342474
1560051886837449984,-0.0019203490810468793,0.011665499113748812,-0.001199744758196175,-0.008778010085403128,9.785860195516761,-0.5473538688601245
1560051886847472128,0.0023224281909827726,0.00528626233906343,0.0019728016232188617,0.013871477536754976,9.784301322200035,-0.5457779660152855
1560051886857494528,-0.0019203490810468793,0.003159849616087562,0.0009152860857038758,0.025973217726554407,9.772157075051176,-0.5335010520255712
1560051886867516672,0.003383122624902535,0.0020966432545996283,-0.001199744758196175,0.03807504826320174,9.760012737238128,-0.5147635023247973
1560051886877539328,-0.0008596547630394663,-2.9769236002535893e-05,0.0019728016232188617,0.05017779514387594,9.747867479862425,-0.49020761268509017
1560051886887561728,0.00020103955496794668,-0.0021561817266047,0.0009152860857038758,0.07346351458259008,9.758170093797323,-0.48834597273357616
1560051886897583872,0.003383122624902535,-0.008535419430784896,0.0009152860857038758,0.09766605983594122,9.762493043010986,-0.48834597273357616
1560051886907606272,0.004443817058822297,-0.01172503805050129,0.0019728016232188617,0.12186918084686332,9.750348976177602,-0.48834597273357616
1560051886917628672,0.0023224281909827726,-0.005345800578694798,0.0030303169296039267,0.13736044229645214,9.75568788019027,-0.49718263812320135
1560051886927651072,0.0012617339888877088,-0.003219387971905782,0.0019728016232188617,0.14946114552445147,9.766403457375873,-0.509458518218918
1560051886937673472,0.00020103955496794668,-2.9769236002535893e-05,-0.00014222933624614964,0.1615621658302284,9.766403457375873,-0.5217347030999666
1560051886947695616,0.0023224281909827726,-0.005345800578694798,-0.001199744758196175,0.17366290312914642,9.766403457375873,-0.51503253935242
1560051886957718016,0.003383122624902535,-0.001092975481303618,0.0030303169296039267,0.1857639328643841,9.766403457375873,-0.4904801504584072
1560051886967740672,0.0023224281909827726,0.001033437125485398,-0.0022572601801462006,0.18681579581018326,9.755315034807873,-0.4547172893251929
1560051886977763072,0.0023224281909827726,0.001033437125485398,0.0030303169296039267,0.18681579581018326,9.750722334112385,-0.42552121595358633
1560051886987785216,0.0023224281909827726,0.010602293681755692,0.0019728016232188617,0.18681579581018326,9.762866472683545,-0.41324441172770315
1560051886997807872,0.004443817058822297,0.006349468235803957,-0.00014222933624614964,0.17823856890142278,9.766403457375873,-0.40096741099345135
1560051887007830272,0.00020103955496794668,0.01272870640473156,0.0009152860857038758,0.16355724945992725,9.765108960729805,-0.3886908615688954
1560051887017852416,0.0023224281909827726,0.01272870640473156,-0.00014222933624614964,0.12725483540628055,9.75296565197786,-0.37641489622738167
1560051887027874816,0.008686594330851949,0.010602293681755692,0.0009152860857038758,0.09705384699094298,9.746946719234984,-0.3703302111342346
1560051887037897216,0.00020103955496794668,0.01272870640473156,0.0009152860857038758,0.07285036779009671,9.746946719234984,-0.3703302111342346
1560051887047919872,0.004443817058822297,0.011665499113748812,-0.001199744758196175,0.048649229585519406,9.757902435916115,-0.3703302111342346
1560051887057941760,0.00020103955496794668,0.008475880958779825,0.0009152860857038758,0.028078523361136035,9.766403457375873,-0.3740109026637504
1560051887067964416,0.0023224281909827726,0.00528626233906343,-0.0022572601801462006,0.015978471569583118,9.766403457375873,-0.38628610381549866
1560051887077986560,0.0012617339888877088,-0.0021561817266047,-0.00014222933624614964,0.029198947412942655,9.774873547585864,-0.4071247388793672
1560051887088009472,0.0012617339888877088,-0.004282594217206864,-0.001199744758196175,0.0487876348122801,9.785860195516761,-0.42816752546681935
1560051887098031360,0.003383122624902535,-0.003219387971905782,0.0009152860857038758,0.024591054309930305,9.785860195516761,-0.4158941113539078
1560051887108053760,-0.0019203490810468793,-0.007472213069296962,-0.001199744758196175,0.01231806054543405,9.779875817874688,-0.4036190356124499
1560051887118075904,0.0023224281909827726,-0.004282594217206864,-0.00014222933624614964,0.01231806054543405,9.767732580832678,-0.3913431427642504
1560051887128098560,0.00020103955496794668,-0.01810427528993408,-0.001199744758196175,0.04465193517101628,9.755587641948372,-0.38999949962516567
1560051887138120960,0.00020103955496794668,-0.01172503805050129,-0.00014222933624614964,0.07048396915281341,9.750450220492132,-0.38291594531571005
1560051887148143360,0.0012617339888877088,-0.01810427528993408,0.0009152860857038758,0.07048396915281341,9.762593746411223,-0.35836355642169726
1560051887158165504,0.0023224281909827726,-0.014914657134965092,0.0009152860857038758,0.08709169663261551,9.766403457375873,-0.37593309513782797
1560051887168188160,0.0012617339888877088,-0.01810427528993408,-0.001199744758196175,0.11129311830611643,9.76742296514732,-0.40966878811609675
1560051887178210304,0.0012617339888877088,-0.020230688012909948,-0.00014222933624614964,0.13549602291959548,9.77956692340194,-0.40966878811609675
1560051887188232704,0.003383122624902535,-0.00959862579227283,0.0009152860857038758,0.14803851207413032,9.780009567963907,-0.40966878811609675
1560051887198255104,0.0023224281909827726,-0.022357100735885815,-0.001199744758196175,0.14803851207413032,9.767866042044815,-0.40966878811609675
1560051887208277760,0.0023224281909827726,-0.01172503805050129,-0.00014222933624614964,0.14803851207413032,9.766403457375873,-0.40966878811609675
1560051887218299904,0.003383122624902535,-0.015977862566958212,-0.00014222933624614964,0.1513945527985722,9.766403457375873,-0.4028595480089781
1560051887228322048,-0.0019203490810468793,-0.013851450773477159,-0.00014222933624614964,0.16349564457182988,9.766403457375873,-0.37830703324290843
1560051887238344448,-0.0008596547630394663,-0.01172503805050129,0.0019728016232188617,0.16742714638806788,9.766403457375873,-0.3703302111342346
1560051887248366848,-0.0019203490810468793,-0.007472213069296962,0.0030303169296039267,0.1663423709103938,9.766403457375873,-0.3703302111342346
1560051887258221824,0.0012617339888877088,-0.004282594217206864,-0.00014222933624614964,0.1544423724046458,9.766403457375873,-0.3703302111342346
1560051887268244224,0.003383122624902535,-0.007472213069296962,0.0009152860857038758,0.14803851207413032,9.766403457375873,-0.3761111039562852
1560051887278266880,-0.0019203490810468793,-2.9769236002535893e-05,0.0019728016232188617,0.14803851207413032,9.766403457375873,-0.3883890392088171
1560051887288289280,-0.004041737717061705,-0.003219387971905782,-0.001199744758196175,0.14803851207413032,9.766403457375873,-0.3793321584581088
1560051887298311424,0.004443817058822297,0.003159849616087562,-0.00014222933624614964,0.14480990387162085,9.766403457375873,-0.3703302111342346
1560051887308333568,0.00020103955496794668,-0.003219387971905782,-0.00014222933624614964,0.1327084527436059,9.766403457375873,-0.3703302111342346
1560051887318356224,-0.0019203490810468793,-0.001092975481303618,-0.0022572601801462006,0.12864987776019277,9.774475402134458,-0.36217007368338255
1560051887328378624,0.0012617339888877088,0.00528626233906343,0.0030303169296039267,0.12864987776019277,9.784340611816617,-0.3506608919895484
1560051887338401024,0.0012617339888877088,0.00528626233906343,0.0009152860857038758,0.12864987776019277,9.760052117518898,-0.3506608919895484
1560051887348423168,-0.0008596547630394663,0.001033437125485398,-0.00014222933624614964,0.12307835392813585,9.752537812314207,-0.3506608919895484
1560051887358445824,-0.0029810433990542923,-0.004282594217206864,-0.004372291139611212,0.11097668404842059,9.764681987723135,-0.3506608919895484
1560051887368468224,0.00020103955496794668,-0.001092975481303618,-0.0022572601801462006,0.10926123966921075,9.776827112375605,-0.3506608919895484
1560051887378490368,0.0023224281909827726,0.001033437125485398,-0.001199744758196175,0.10616031340491262,9.782748377049213,-0.3506608919895484
1560051887388512768,0.003383122624902535,-0.004282594217206864,0.0030303169296039267,0.09405803530888623,9.770603588921803,-0.3506608919895484
1560051887398535168,0.0012617339888877088,-0.010661831689013357,-0.00014222933624614964,0.09778968861434556,9.774348349899874,-0.3586925890547617
1560051887408557568,-0.0019203490810468793,-0.001092975481303618,-0.001199744758196175,0.10926123966921075,9.785226929940874,-0.3696900266066294
1560051887418579968,-0.004041737717061705,-0.005345800578694798,-0.001199744758196175,0.10926123966921075,9.773082502471187,-0.3574129111928804
1560051887428602112,0.0023224281909827726,-0.005345800578694798,-0.004372291139611212,0.10926123966921075,9.766403457375873,-0.3506608919895484
1560051887438624768,-0.0029810433990542923,-0.0021561817266047,0.0019728016232188617,0.10926123966921075,9.766403457375873,-0.3506608919895484
1560051887448647168,0.0012617339888877088,-0.003219387971905782,-0.00014222933624614964,0.10926123966921075,9.766403457375873,-0.361070453264015
1560051887458669312,0.0023224281909827726,-0.0021561817266047,0.0030303169296039267,0.11223533692475096,9.766403457375873,-0.3703302111342346
1560051887468691712,0.00020103955496794668,0.001033437125485398,0.0019728016232188617,0.1243378686027653,9.766403457375873,-0.3703302111342346
1560051887478714112,0.003383122624902535,-0.004282594217206864,0.0009152860857038758,0.12864987776019277,9.77422226923852,-0.3782344376838795
1560051887488736512,0.003383122624902535,-0.003219387971905782,0.004087832467118913,0.12864987776019277,9.785352266651392,-0.3905129772344891
1560051887498758912,-0.0008596547630394663,-0.003219387971905782,0.0019728016232188617,0.12864987776019277,9.773206757144271,-0.40279116737278714
1560051887508781312,0.003383122624902535,0.001033437125485398,0.004087832467118913,0.12864987776019277,9.766403457375873,-0.404268270215492
1560051887518803456,0.0023224281909827726,0.0020966432545996283,-0.00014222933624614964,0.12864987776019277,9.766403457375873,-0.391989825168717
1560051887528826112,0.0012617339888877088,-0.001092975481303618,0.006202863542148884,0.12864987776019277,9.766403457375873,-0.38999949962516567
1560051887538848512,-0.0029810433990542923,-0.0021561817266047,0.0009152860857038758,0.12864987776019277,9.766403457375873,-0.38710211267463074
1560051887548870656,0.0023224281909827726,-2.9769236002535893e-05,0.004087832467118913,0.12864987776019277,9.766403457375873,-0.37482596506191673
1560051887558893056,-0.0029810433990542923,-0.004282594217206864,0.0019728016232188617,0.1209799225314172,9.766403457375873,-0.3781111889109811
1560051887568915712,-0.0008596547630394663,0.0020966432545996283,0.0009152860857038758,0.10926123966921075,9.766787952772745,-0.38999949962516567
1560051887578937856,-0.0029810433990542923,-0.001092975481303618,0.0019728016232188617,0.10926123966921075,9.778931189814752,-0.38999949962516567
1560051887588960256,0.0012617339888877088,-0.0021561817266047,-0.001199744758196175,0.10926123966921075,9.785860195516761,-0.38999949962516567
1560051887598982400,-0.0019203490810468793,0.003159849616087562,-0.00014222933624614964,0.10926123966921075,9.785860195516761,-0.38999949962516567
1560051887609005312,-0.0008596547630394663,-2.9769236002535893e-05,0.0009152860857038758,0.09925069239251308,9.775814485547922,-0.38999949962516567
1560051887619027200,-0.004041737717061705,-0.005345800578694798,0.0019728016232188617,0.09259560522669784,9.766403457375873,-0.38723708381162286
1560051887629049600,0.0012617339888877088,0.006349468235803957,0.0019728016232188617,0.10469824273939375,9.766403457375873,-0.37495925831427684
1560051887639072000,0.00020103955496794668,0.001033437125485398,0.0019728016232188617,0.10926123966921075,9.766403457375873,-0.3703302111342346
1560051887649094656,0.0023224281909827726,-0.003219387971905782,0.0009152860857038758,0.10926123966921075,9.766403457375873,-0.3703302111342346
1560051887659116800,0.004443817058822297,0.004223055977575496,0.0030303169296039267,0.10926123966921075,9.766403457375873,-0.3703302111342346
1560051887669139200,0.003383122624902535,-0.004282594217206864,0.0030303169296039267,0.10926123966921075,9.766403457375873,-0.3703302111342346
1560051887679161600,-0.0019203490810468793,-0.001092975481303618,-0.003314775602096226,0.10926123966921075,9.766403457375873,-0.3703302111342346
1560051887689184256,0.00020103955496794668,-0.0021561817266047,0.0009152860857038758,0.09937635243390983,9.766403457375873,-0.38035818399623705
1560051887699206400,-0.0008596547630394663,-0.010661831689013357,-0.001199744758196175,0.0898726053552732,9.769009822505897,-0.38472982006928536
1560051887709228800,-0.0019203490810468793,-0.010661831689013357,0.0019728016232188617,0.0898726053552732,9.781153889339283,-0.3601763375276604
1560051887719250944,0.00020103955496794668,-0.005345800578694798,0.0009152860857038758,0.09728426405950083,9.785860195516761,-0.3656987914606384
1560051887729273856,0.0023224281909827726,-0.003219387971905782,0.004087832467118913,0.10926123966921075,9.785860195516761,-0.38974526199966536
1560051887739295744,0.0012617339888877088,-0.004282594217206864,0.0030303169296039267,0.10926123966921075,9.785860195516761,-0.3652340725778612
1560051887749318144,-0.0019203490810468793,-0.008535419430784896,-0.00014222933624614964,0.11416842548961269,9.78093577384938,-0.3556391170485152
1560051887759368192,0.0023224281909827726,-0.003219387971905782,0.004087832467118913,0.12630410186904376,9.768757472497365,-0.3679504764448558
1560051887769390848,-0.0029810433990542923,-0.005345800578694798,-0.00014222933624614964,0.12864987776019277,9.766403457375873,-0.3703302111342346
1560051887779412992,0.0012617339888877088,-0.008535419430784896,-0.001199744758196175,0.12864987776019277,9.766403457375873,-0.3728354548931466
1560051887789435392,0.0023224281909827726,-2.9769236002535893e-05,0.0030303169296039267,0.12864987776019277,9.766403457375873,-0.38511255117355986
1560051887799457792,0.0012617339888877088,0.003159849616087562,-0.00014222933624614964,0.12864987776019277,9.766403457375873,-0.38999949962516567
1560051887809480192,0.00020103955496794668,-0.007472213069296962,-0.0022572601801462006,0.12864987776019277,9.766403457375873,-0.38999949962516567
1560051887819502336,-0.0019203490810468793,0.001033437125485398,0.0019728016232188617,0.12864987776019277,9.766403457375873,-0.37772437525274055
1560051887829524736,0.0012617339888877088,-0.003219387971905782,0.0009152860857038758,0.12864987776019277,9.766403457375873,-0.37521358040542574
1560051887839547392,0.003383122624902535,-0.003219387971905782,0.004087832467118913,0.12864987776019277,9.766403457375873,-0.38749151565795764
1560051887849569536,0.0012617339888877088,-0.001092975481303618,-0.00014222933624614964,0.11902076229783501,9.766403457375873,-0.38023100278424043
1560051887859591936,0.00020103955496794668,0.0020966432545996283,0.0030303169296039267,0.1069193112048849,9.766403457375873,-0.36795437910640905
1560051887869614336,0.003383122624902535,-2.9769236002535893e-05,-0.0022572601801462006,0.09481757219383806,9.766403457375873,-0.355677445983643
1560051887879636480,0.00020103955496794668,-0.003219387971905782,0.004087832467118913,0.09702866463118033,9.766403457375873,-0.3651801924990106
1560051887889659136,0.0012617339888877088,-0.0064090067078090285,0.0009152860857038758,0.10912997280289216,9.766403457375873,-0.3897331654591769
1560051887899681536,0.0012617339888877088,0.001033437125485398,0.0009152860857038758,0.10926123966921075,9.766403457375873,-0.38999949962516567
1560051887909703936,0.00020103955496794668,0.003159849616087562,0.004087832467118913,0.10926123966921075,9.766403457375873,-0.3852501088572212
1560051887919726080,-0.0008596547630394663,-0.005345800578694798,-0.0022572601801462006,0.10926123966921075,9.766403457375873,-0.3729733046313381
1560051887929748480,-0.0019203490810468793,-0.001092975481303618,0.0019728016232188617,0.10926123966921075,9.766403457375873,-0.3799647861438916
1560051887939770880,0.0012617339888877088,-0.0021561817266047,0.0009152860857038758,0.10926123966921075,9.766403457375873,-0.3922424784160778
1560051887949793024,0.0012617339888877088,-0.003219387971905782,-0.00014222933624614964,0.10926123966921075,9.766403457375873,-0.40451928264196096
1560051887959815680,-0.0019203490810468793,-2.9769236002535893e-05,-0.00014222933624614964,0.11628741863886846,9.766403457375873,-0.39541302239448173
1560051887969838080,0.0012617339888877088,0.0020966432545996283,0.0009152860857038758,0.12838933969711236,9.766403457375873,-0.3708588298336553
1560051887979860480,0.0012617339888877088,-0.001092975481303618,-0.003314775602096226,0.11680867058624404,9.766403457375873,-0.3823428196987118
1560051887989882624,0.0012617339888877088,-0.004282594217206864,0.0009152860857038758,0.11381532985691112,9.766403457375873,-0.3853794890140408
1560051887999905280,0.0012617339888877088,-0.008535419430784896,-0.00014222933624614964,0.12591753880251755,9.766403457375873,-0.3731021006790975
1560051888009927680,0.004443817058822297,-2.9769236002535893e-05,-0.001199744758196175,0.11928071300675035,9.766403457375873,-0.3703302111342346
1560051888019950080,0.00020103955496794668,-0.005345800578694798,0.0019728016232188617,0.11134324107495379,9.768492771538652,-0.3745544878571191
1560051888029971968,0.00020103955496794668,-0.0021561817266047,0.0030303169296039267,0.12344458635847266,9.780636621211283,-0.3991075121998253
1560051888039994880,0.00020103955496794668,-0.007472213069296962,-0.0022572601801462006,0.12175297954956862,9.778939072855191,-0.39567532658870364
1560051888050017024,0.0012617339888877088,-0.001092975481303618,0.0019728016232188617,0.10965188541893181,9.766795475217585,-0.37112281182263396
1560051888060039168,-0.0008596547630394663,-2.9769236002535893e-05,0.0030303169296039267,0.10926123966921075,9.754652401004563,-0.3703302111342346
1560051888070061568,0.00020103955496794668,0.001033437125485398,-0.00014222933624614964,0.11368297747137325,9.751383987811591,-0.37481595355997216
1560051888080083968,0.00020103955496794668,-0.005345800578694798,-0.001199744758196175,0.12578274260543815,9.7635262517847,-0.38709086270921905
1560051888090106368,0.003383122624902535,0.0020966432545996283,0.0030303169296039267,0.12864987776019277,9.766403457375873,-0.3806316976142211
1560051888100128768,0.00020103955496794668,-2.9769236002535893e-05,0.0009152860857038758,0.12670263655323494,9.766403457375873,-0.3723056386439624
1560051888110151168,0.00020103955496794668,-2.9769236002535893e-05,-0.001199744758196175,0.11460089518468292,9.766403457375873,-0.3845825526336767
1560051888120173568,0.004443817058822297,-0.005345800578694798,0.0019728016232188617,0.10926123966921075,9.766403457375873,-0.3831395326269403
1560051888130195968,0.00020103955496794668,0.001033437125485398,0.0019728016232188617,0.10926123966921075,9.766403457375873,-0.37086261863722597
1560051888140218112,0.0023224281909827726,0.001033437125485398,0.0019728016232188617,0.10926123966921075,9.766403457375873,-0.3703302111342346
1560051888150240768,0.00020103955496794668,-0.003219387971905782,0.0009152860857038758,0.11355085817812262,9.766403457375873,-0.3703302111342346
1560051888160263424,-0.0029810433990542923,-0.003219387971905782,0.0030303169296039267,0.12565252805783786,9.766403457375873,-0.3703302111342346
1560051888170285568,0.004443817058822297,-0.0021561817266047,0.0009152860857038758,0.1195457278078673,9.766403457375873,-0.3703302111342346
1560051888180307968,0.0023224281909827726,-0.003219387971905782,-0.003314775602096226,0.10926123966921075,9.766403457375873,-0.372173896631536
1560051888190330368,0.00020103955496794668,0.0020966432545996283,-0.00014222933624614964,0.10926123966921075,9.766403457375873,-0.3844506283359646
1560051888200352512,-0.0019203490810468793,-2.9769236002535893e-05,-0.0022572601801462006,0.12252517883589811,9.766403457375873,-0.38327153167343747
1560051888210375168,-0.0008596547630394663,-0.0021561817266047,0.0030303169296039267,0.14673031317732907,9.766403457375873,-0.3709937787321824
1560051888220397312,0.0012617339888877088,-0.001092975481303618,0.0019728016232188617,0.1251434081377221,9.766403457375873,-0.3703302111342346
1560051888230419712,0.00020103955496794668,0.001033437125485398,0.0009152860857038758,0.10926123966921075,9.766403457375873,-0.37455114991017263
1560051888240442112,-0.0008596547630394663,-0.007472213069296962,-0.003314775602096226,0.10926123966921075,9.766403457375873,-0.3868278816146013
1560051888250464768,0.0012617339888877088,-0.008535419430784896,0.0009152860857038758,0.10926123966921075,9.77541555301642,-0.3808889535624985
1560051888260479232,0.003383122624902535,-0.0064090067078090285,0.006202863542148884,0.11095126395672489,9.782468274964158,-0.3703302111342346
1560051888270501632,0.00020103955496794668,-0.004282594217206864,0.0009152860857038758,0.12305408354347645,9.75817761665584,-0.3703302111342346
1560051888280523776,0.00020103955496794668,-0.001092975481303618,-0.001199744758196175,0.12864987776019277,9.753475825993672,-0.37693064351374167
1560051888290546176,0.0023224281909827726,-0.0021561817266047,-0.0022572601801462006,0.12864987776019277,9.765620253463359,-0.3892077397941549
1560051888300568576,0.00020103955496794668,-0.004282594217206864,0.0030303169296039267,0.11732892363084119,9.766403457375873,-0.38999949962516567
1560051888310590976,-0.0008596547630394663,-0.0021561817266047,-0.00014222933624614964,0.11329511739283789,9.766403457375873,-0.38999949962516567
1560051888320613376,0.0023224281909827726,-0.0064090067078090285,-0.001199744758196175,0.1253970384510818,9.766403457375873,-0.38999949962516567
1560051888330635520,0.00020103955496794668,-2.9769236002535893e-05,0.0019728016232188617,0.12864987776019277,9.766403457375873,-0.38102315266671233
1560051888340657920,0.0023224281909827726,-0.001092975481303618,-0.0022572601801462006,0.12708885976706338,9.764836956511655,-0.3703302111342346
1560051888350680320,-0.0008596547630394663,-0.004282594217206864,-0.00014222933624614964,0.11498621989668725,9.752691807705101,-0.3703302111342346
1560051888360702720,0.0012617339888877088,-0.001092975481303618,-0.001199744758196175,0.11563852052374887,9.753346399452614,-0.3767998030842718
1560051888370725120,-0.0019203490810468793,-0.005345800578694798,0.0030303169296039267,0.1277404415819928,9.765490826922303,-0.38907689936468504
1560051888380747520,0.0012617339888877088,-0.005345800578694798,0.0009152860857038758,0.11745706049263124,9.75517132680477,-0.38999949962516567
1560051888390769920,-0.0019203490810468793,0.001033437125485398,0.0019728016232188617,0.10926123966921075,9.750866608766449,-0.38999949962516567
1560051888400791808,0.0012617339888877088,0.003159849616087562,0.0030303169296039267,0.10926123966921075,9.763009917518394,-0.38999949962516567
1560051888410814720,0.00020103955496794668,-0.004282594217206864,-0.001199744758196175,0.11798244163303867,9.766403457375873,-0.38115205832427346
1560051888420837120,-0.0008596547630394663,-0.00959862579227283,-0.003314775602096226,0.12864987776019277,9.767843509632376,-0.36887442511228663
1560051888430859520,-0.0029810433990542923,0.001033437125485398,-0.0022572601801462006,0.12864987776019277,9.779987035551468,-0.3565982210993225
1560051888440881408,0.0012617339888877088,0.001033437125485398,0.0030303169296039267,0.1224013848856839,9.77958975563006,-0.35699984163342136
1560051888450904320,-0.0008596547630394663,-0.004282594217206864,0.0019728016232188617,0.11029852864022326,9.767444389688432,-0.36927790577269415
1560051888460926464,-0.0029810433990542923,-0.001092975481303618,-0.00014222933624614964,0.10926123966921075,9.766403457375873,-0.3815545762260987
1560051888470948864,0.0012617339888877088,-0.001092975481303618,-0.001199744758196175,0.11303849758148656,9.76261293234029,-0.38999949962516567
1560051888480971008,0.0012617339888877088,0.003159849616087562,0.0030303169296039267,0.1251397713868692,9.750469154396853,-0.38999949962516567
1560051888490993408,-0.0019203490810468793,-2.9769236002535893e-05,0.0030303169296039267,0.12005816731315251,9.764190494642618,-0.38999949962516567
1560051888501015808,0.00020103955496794668,-0.001092975481303618,0.0009152860857038758,0.11056627183840301,9.783240963669506,-0.3886755771245065
1560051888511038464,0.003383122624902535,-2.9769236002535893e-05,0.0030303169296039267,0.12266884018795163,9.758950809600469,-0.3763978241832515
1560051888521060608,-0.0029810433990542923,-0.005345800578694798,-0.001199744758196175,0.12864987776019277,9.746946719234984,-0.3703302111342346
1560051888531083008,0.003383122624902535,0.003159849616087562,-0.00014222933624614964,0.12864987776019277,9.746946719234984,-0.3703302111342346
1560051888541105408,0.0023224281909827726,-2.9769236002535893e-05,0.0009152860857038758,0.11771451314959079,9.757920492880416,-0.35923653990884413
1560051888551127808,0.00020103955496794668,-2.9769236002535893e-05,0.0009152860857038758,0.10926123966921075,9.77006461407396,-0.35436204986153774
1560051888561149952,0.0023224281909827726,-2.9769236002535893e-05,-0.001199744758196175,0.10926123966921075,9.78220857232858,-0.36663869093365503
1560051888571172608,-0.0008596547630394663,-0.004282594217206864,0.0019728016232188617,0.11772392407226168,9.777367787044001,-0.37891539283447645
1560051888581195008,0.0012617339888877088,0.003159849616087562,-0.001199744758196175,0.12747473899514222,9.766403457375873,-0.38999949962516567
1560051888591217408,-0.0029810433990542923,-0.0021561817266047,-0.001199744758196175,0.1153729976265902,9.766403457375873,-0.38999949962516567
1560051888601239808,0.00020103955496794668,0.004223055977575496,-0.00014222933624614964,0.10926123966921075,9.772414101678164,-0.38999949962516567
1560051888611262208,0.003383122624902535,-0.0021561817266047,-0.0022572601801462006,0.10926123966921075,9.7845584574015,-0.38999949962516567
1560051888621284608,0.00020103955496794668,-2.9769236002535893e-05,-0.0022572601801462006,0.12006452951487262,9.77501896053157,-0.3790398322349995
1560051888631306752,0.0012617339888877088,-0.004282594217206864,0.0009152860857038758,0.1251346939537879,9.762875926947105,-0.3703302111342346
1560051888641329152,-0.0008596547630394663,0.004223055977575496,0.0019728016232188617,0.11303349162229645,9.750732220728603,-0.3703302111342346
1560051888651351552,0.0023224281909827726,-0.001092975481303618,0.0030303169296039267,0.10926123966921075,9.755304675772537,-0.37877947211217367
1560051888661374208,-0.0008596547630394663,-0.003219387971905782,0.0019728016232188617,0.10926123966921075,9.767448372325473,-0.38999949962516567
1560051888671396352,0.00020103955496794668,-0.001092975481303618,0.0009152860857038758,0.10926123966921075,9.77959215026891,-0.38999949962516567
1560051888681418752,-0.0019203490810468793,-0.004282594217206864,-0.00014222933624614964,0.10926123966921075,9.785860195516761,-0.38999949962516567
1560051888691441152,0.00020103955496794668,0.001033437125485398,0.0030303169296039267,0.10926123966921075,9.785860195516761,-0.38999949962516567
1560051888701463552,0.00020103955496794668,-2.9769236002535893e-05,-0.001199744758196175,0.10926123966921075,9.77515185353369,-0.38999949962516567
1560051888711485696,0.0012617339888877088,-0.003219387971905782,-0.00014222933624614964,0.10926123966921075,9.766403457375873,-0.38999949962516567
1560051888721508352,-0.0008596547630394663,-0.003219387971905782,0.0019728016232188617,0.10926123966921075,9.766403457375873,-0.38999949962516567
1560051888731530496,-0.0008596547630394663,0.0020966432545996283,-0.00014222933624614964,0.10926123966921075,9.766403457375873,-0.38168049486807654
1560051888741553152,-0.0008596547630394663,0.003159849616087562,-0.00014222933624614964,0.11017579806972877,9.766403457375873,-0.3712580077611653
1560051888751575296,0.003383122624902535,-2.9769236002535893e-05,-0.00014222933624614964,0.12228426324269742,9.766403457375873,-0.38354174288231785
1560051888761588224,0.0012617339888877088,-0.00959862579227283,0.0009152860857038758,0.12864987776019277,9.766403457375873,-0.38999949962516567
1560051888771610624,0.0012617339888877088,-0.005345800578694798,0.004087832467118913,0.12864987776019277,9.766403457375873,-0.38999949962516567
1560051888781633024,0.0012617339888877088,-0.0021561817266047,0.0030303169296039267,0.12864987776019277,9.766403457375873,-0.37930581524523926
1560051888791655424,0.0012617339888877088,-0.0021561817266047,-0.00014222933624614964,0.12864987776019277,9.766403457375873,-0.3703302111342346
1560051888801677824,0.0012617339888877088,-0.0021561817266047,-0.00014222933624614964,0.12864987776019277,9.766403457375873,-0.3703302111342346
1560051888811700224,-0.0019203490810468793,-0.005345800578694798,0.0009152860857038758,0.12058224210321672,9.766403457375873,-0.3703302111342346
1560051888821722624,0.0023224281909827726,-0.005345800578694798,-0.00014222933624614964,0.11004226648684479,9.766403457375873,-0.3703302111342346
1560051888831745024,0.0012617339888877088,0.003159849616087562,0.0009152860857038758,0.12214400785539681,9.766403457375873,-0.3703302111342346
1560051888841767168,0.004443817058822297,0.004223055977575496,0.004087832467118913,0.12864987776019277,9.7607887590372,-0.3646541675587488
1560051888851789568,0.00020103955496794668,-0.003219387971905782,0.0030303169296039267,0.12864987776019277,9.748645052818697,-0.3523777812764532
1560051888861812224,-0.0008596547630394663,-0.0021561817266047,-0.001199744758196175,0.13905928575065554,9.746946719234984,-0.36122099460206075
1560051888871834624,-0.0008596547630394663,-2.9769236002535893e-05,0.0009152860857038758,0.14179449442928632,9.750079694009337,-0.3734974113208913
1560051888881856768,0.0012617339888877088,-0.0021561817266047,-0.00014222933624614964,0.11759446439806166,9.762222209924392,-0.38577257516436386
1560051888891879168,-0.0019203490810468793,-0.004282594217206864,0.004087832467118913,0.11719504872948223,9.766403457375873,-0.3819508487345688
1560051888901901824,0.004443817058822297,0.003159849616087562,0.0030303169296039267,0.12800391606710604,9.766403457375873,-0.3703302111342346
1560051888911923968,0.0012617339888877088,-0.001092975481303618,-0.00014222933624614964,0.11590336092869526,9.766403457375873,-0.3703302111342346
1560051888921946112,0.00020103955496794668,0.0020966432545996283,0.0009152860857038758,0.10926123966921075,9.760925932787831,-0.3703302111342346
1560051888931968512,0.0012617339888877088,0.0020966432545996283,0.0009152860857038758,0.10926123966921075,9.7487827674515,-0.3703302111342346
1560051888941991424,0.0023224281909827726,-0.007472213069296962,0.0009152860857038758,0.10926123966921075,9.746946719234984,-0.3807508192915831
1560051888952013568,-0.0019203490810468793,-2.9769236002535893e-05,-0.0022572601801462006,0.11224525853178732,9.749941219072682,-0.38697228711054876
1560051888962035712,0.003383122624902535,-0.001092975481303618,0.0019728016232188617,0.12434599332893845,9.76208445611469,-0.3746963942623493
1560051888972057856,0.004443817058822297,-2.9769236002535893e-05,0.0019728016232188617,0.12085291163158117,9.766403457375873,-0.3703302111342346
1560051888982080256,0.005504511492742059,0.001033437125485398,0.0009152860857038758,0.10977076247325865,9.766403457375873,-0.3703302111342346
1560051888992103168,0.00020103955496794668,-0.005345800578694798,0.0019728016232188617,0.12187236086838274,9.766403457375873,-0.3703302111342346
1560051889002125312,0.003383122624902535,-0.0064090067078090285,-0.001199744758196175,0.12332713402025543,9.761062018196233,-0.3703302111342346
1560051889012147712,0.00020103955496794668,-0.0021561817266047,-0.00014222933624614964,0.11122718925518155,9.748919573961187,-0.3703302111342346
1560051889022170112,0.0012617339888877088,-2.9769236002535893e-05,-0.0022572601801462006,0.10926123966921075,9.75711600680088,-0.3703302111342346
1560051889032192768,-0.0008596547630394663,0.0020966432545996283,-0.0022572601801462006,0.11210642263842263,9.766403457375873,-0.37321657810690717
1560051889042214656,0.00020103955496794668,-2.9769236002535893e-05,0.0019728016232188617,0.12420651026598449,9.766403457375873,-0.38549181441774216
1560051889052237056,-0.0019203490810468793,-0.003219387971905782,0.0019728016232188617,0.12099258191195265,9.766403457375873,-0.38999949962516567
1560051889062259456,0.0012617339888877088,0.001033437125485398,0.0009152860857038758,0.10889194057295365,9.766403457375873,-0.38999949962516567
1560051889072281856,0.003383122624902535,0.004223055977575496,-0.003314775602096226,0.09679199816503499,9.766403457375873,-0.38999949962516567
1560051889082304256,0.00020103955496794668,-0.001092975481303618,0.004087832467118913,0.09505346260985338,9.766403457375873,-0.38999949962516567
1560051889092326656,0.0012617339888877088,-0.003219387971905782,0.0030303169296039267,0.10715412359500656,9.766403457375873,-0.38999949962516567
1560051889102349056,-0.0008596547630394663,-0.004282594217206864,0.0009152860857038758,0.10926123966921075,9.766403457375873,-0.38999949962516567
1560051889112371456,-0.0008596547630394663,-0.004282594217206864,0.006202863542148884,0.10926123966921075,9.766403457375873,-0.3872557626576074
1560051889122393856,-0.0019203490810468793,0.0020966432545996283,0.004087832467118913,0.10926123966921075,9.766403457375873,-0.3749804890406166
1560051889132416000,-0.0019203490810468793,-0.004282594217206864,0.0030303169296039267,0.10926123966921075,9.766403457375873,-0.3703302111342346
1560051889142438400,0.00020103955496794668,-0.003219387971905782,0.0019728016232188617,0.10926123966921075,9.766403457375873,-0.37056150115078645
1560051889152460544,-0.0008596547630394663,-2.9769236002535893e-05,0.0009152860857038758,0.10926123966921075,9.766403457375873,-0.3828373939989859
1560051889162483456,0.00020103955496794668,-0.003219387971905782,0.0009152860857038758,0.10926123966921075,9.771462550147218,-0.3848851400392256
1560051889172505600,0.004443817058822297,0.001033437125485398,0.0030303169296039267,0.10926123966921075,9.783605066062274,-0.37260997619575303
1560051889182528000,0.003383122624902535,-0.003219387971905782,0.0009152860857038758,0.10926123966921075,9.775972813777683,-0.3703302111342346
1560051889192550144,0.0012617339888877088,-0.001092975481303618,-0.001199744758196175,0.10926123966921075,9.766403457375873,-0.37293127048526603
1560051889202572800,-0.0029810433990542923,-0.005345800578694798,-0.00014222933624614964,0.10926123966921075,9.766403457375873,-0.38520738286863415
1560051889212595200,0.003383122624902535,-0.007472213069296962,-0.00014222933624614964,0.10926123966921075,9.766403457375873,-0.38251624042955573
1560051889222617600,-0.0019203490810468793,-0.001092975481303618,-0.0022572601801462006,0.10926123966921075,9.766315356405936,-0.3704192745415468
1560051889232639744,-0.0008596547630394663,-0.005345800578694798,0.0019728016232188617,0.10926123966921075,9.754173020759236,-0.38269425614736613
1560051889242662144,-0.0008596547630394663,-2.9769236002535893e-05,0.0009152860857038758,0.11417311648787788,9.751875848377146,-0.38501652342410814
1560051889252684544,0.0023224281909827726,0.001033437125485398,-0.00014222933624614964,0.12630475960340726,9.76405010229895,-0.37270927485983935
1560051889262665472,0.0012617339888877088,-0.003219387971905782,0.0009152860857038758,0.11893814282224702,9.766403457375873,-0.3703302111342346
1560051889272687360,0.005504511492742059,-2.9769236002535893e-05,0.0030303169296039267,0.10926123966921075,9.766403457375873,-0.3703302111342346
1560051889282710272,-0.0008596547630394663,0.003159849616087562,-0.00014222933624614964,0.10926123966921075,9.766403457375873,-0.3703302111342346
1560051889292732416,0.0023224281909827726,-2.9769236002535893e-05,0.0009152860857038758,0.11649585338054531,9.766403457375873,-0.3703302111342346
1560051889302754816,0.003383122624902535,-0.001092975481303618,-0.001199744758196175,0.1285963370706488,9.766403457375873,-0.3703302111342346
1560051889312776960,0.0012617339888877088,-0.0021561817266047,-0.001199744758196175,0.12864987776019277,9.766403457375873,-0.382551604419644
1560051889322799360,0.00020103955496794668,0.0020966432545996283,0.0019728016232188617,0.12389023599565327,9.761627097993511,-0.39482803717075815
1560051889332822016,0.0023224281909827726,0.001033437125485398,-0.001199744758196175,0.11178802705004684,9.749482381625294,-0.40710542550570145
1560051889342844416,0.00020103955496794668,-0.010661831689013357,0.0009152860857038758,0.10926123966921075,9.756555341643127,-0.39995519867589174
1560051889352866560,0.0012617339888877088,-0.0064090067078090285,0.0019728016232188617,0.11154911451009504,9.766403457375873,-0.38999949962516567
1560051889362888960,0.00020103955496794668,-0.005345800578694798,0.0030303169296039267,0.12365121526336706,9.766403457375873,-0.38999949962516567
1560051889372911360,0.00020103955496794668,-0.005345800578694798,-0.001199744758196175,0.12154686137948735,9.766403457375873,-0.38279366713232615
1560051889382934016,0.00020103955496794668,-2.9769236002535893e-05,0.0009152860857038758,0.10944519149977211,9.766403457375873,-0.37051682566624905
1560051889392956160,0.0012617339888877088,-0.001092975481303618,-0.00014222933624614964,0.10926123966921075,9.766403457375873,-0.38242111063024126
1560051889402978304,0.0012617339888877088,-0.0021561817266047,-0.00014222933624614964,0.11389292190003197,9.761755506968319,-0.38999949962516567
1560051889413001216,0.0012617339888877088,0.004223055977575496,0.0009152860857038758,0.12599505934185518,9.749610862355032,-0.38999949962516567
1560051889423023360,-0.0008596547630394663,-0.003219387971905782,0.0019728016232188617,0.11920398337652612,9.756425791084542,-0.39958212326357484
1560051889433045760,0.0012617339888877088,-0.004282594217206864,0.0030303169296039267,0.10926123966921075,9.766403457375873,-0.4074793853393936
1560051889443067904,0.0012617339888877088,-0.001092975481303618,0.0019728016232188617,0.10926123966921075,9.766403457375873,-0.39520331022648264
1560051889453090560,0.003383122624902535,-0.0064090067078090285,-0.0022572601801462006,0.10926123966921075,9.766403457375873,-0.38292623096148065
1560051889463112960,-0.0008596547630394663,-0.003219387971905782,-0.003314775602096226,0.10926123966921075,9.766403457375873,-0.3706491346810674
1560051889473135360,-0.0008596547630394663,-0.001092975481303618,0.0019728016232188617,0.1210483248226231,9.766403457375873,-0.3703302111342346
1560051889483157504,0.0012617339888877088,0.0020966432545996283,0.0019728016232188617,0.12864987776019277,9.766403457375873,-0.3748953154937069
1560051889493180160,0.003383122624902535,-0.005345800578694798,-0.001199744758196175,0.12864987776019277,9.766403457375873,-0.38717299588318027
1560051889503202560,0.0012617339888877088,-0.0021561817266047,0.0009152860857038758,0.11933483342012363,9.766403457375873,-0.38054962008381443
1560051889513224704,0.003383122624902535,-0.001092975481303618,0.0009152860857038758,0.10926123966921075,9.768437928049996,-0.3703302111342346
1560051889523247360,0.003383122624902535,0.001033437125485398,0.0019728016232188617,0.10926123966921075,9.780581201967193,-0.3703302111342346
1560051889533269760,0.0023224281909827726,0.003159849616087562,0.0030303169296039267,0.12294300050318552,9.778995286735318,-0.3703302111342346
1560051889543292160,-0.0029810433990542923,0.0020966432545996283,0.0009152860857038758,0.14714719965215436,9.766850678939448,-0.3703302111342346
1560051889553314304,0.0012617339888877088,0.004223055977575496,0.0009152860857038758,0.14803851207413032,9.766403457375873,-0.34668147814974326
1560051889563336960,0.0012617339888877088,0.00528626233906343,-0.00014222933624614964,0.15677608179066518,9.766403457375873,-0.326559566046777
1560051889573359104,0.0012617339888877088,0.00528626233906343,0.0019728016232188617,0.18097827476669703,9.766403457375873,-0.31428330866374216
1560051889583381760,0.00020103955496794668,0.004223055977575496,-0.001199744758196175,0.1959982913562891,9.757188704132469,-0.30200687487330985
1560051889593404160,0.003383122624902535,0.018044737282676415,0.004087832467118913,0.2137835819621322,9.748848164654403,-0.2916529958630001
1560051889603426048,0.0023224281909827726,0.018044737282676415,-0.001199744758196175,0.26218679755723046,9.76099147340635,-0.2916529958630001
1560051889613448704,0.00020103955496794668,0.026550388174579886,0.0009152860857038758,0.2904673901866048,9.773135448907583,-0.2984585346833973
1560051889623471360,0.0023224281909827726,0.033992830846005795,-0.0022572601801462006,0.3025687030731592,9.785279263703757,-0.3107350211634804
1560051889633493504,-0.0019203490810468793,0.033992830846005795,-0.00014222933624614964,0.28010119621707386,9.785860195516761,-0.2996322872773966
1560051889643515904,0.0012617339888877088,0.033992830846005795,-0.0022572601801462006,0.2516600076747891,9.785860195516761,-0.2873548898141101
1560051889653538048,0.003383122624902535,0.0414352735174317,-0.00014222933624614964,0.215355649575846,9.785860195516761,-0.27507825830829113
1560051889663560960,0.0012617339888877088,0.04887771990683687,-0.00014222933624614964,0.16999410609854562,9.767691443516169,-0.24443283321670556
1560051889673582848,-0.0008596547630394663,0.04356168624040757,-0.003314775602096226,0.13041593583511915,9.746946719234984,-0.20939255798168677
1560051889683605248,0.00020103955496794668,0.049940924409335175,-0.001199744758196175,0.14251893278583333,9.746946719234984,-0.1848361681375703
1560051889693627648,0.0023224281909827726,0.05100413262981274,-0.001199744758196175,0.16120476598917355,9.753552967276109,-0.19367247340210966
1560051889703650304,0.004443817058822297,0.060572984306235256,-0.001199744758196175,0.1854102668236259,9.76569822465181,-0.23050630307800957
1560051889713672448,0.00020103955496794668,0.05738337079874034,0.0009152860857038758,0.20961392123688993,9.77784256448812,-0.25577325671175954
1560051889723694592,0.00020103955496794668,0.05632016257826278,0.0019728016232188617,0.23792941461404896,9.785860195516761,-0.2803269884782069
1560051889733717248,0.00020103955496794668,0.06376260153170943,-0.00014222933624614964,0.2742355000114077,9.785860195516761,-0.3048814196915297
1560051889743739904,0.00020103955496794668,0.07652107786956464,0.0019728016232188617,0.2926916767024627,9.785860195516761,-0.29319825330748933
1560051889753761792,0.0012617339888877088,0.07864749431051976,0.0019728016232188617,0.3031476016938086,9.784203147366384,-0.2703085418798787
1560051889763775232,0.003383122624902535,0.07652107786956464,0.0009152860857038758,0.3031476016938086,9.772069949612566,-0.25804279799160523
1560051889773797632,0.00020103955496794668,0.08608993698194567,-0.00014222933624614964,0.3031476016938086,9.766403457375873,-0.24576644300990963
1560051889783820288,-0.0008596547630394663,0.08608993698194567,-0.00014222933624614964,0.3031476016938086,9.766403457375873,-0.2334899660960118
1560051889793842688,0.0023224281909827726,0.09778520509932331,-0.0022572601801462006,0.26934292483529343,9.766403457375873,-0.2326451150633293
1560051889803864832,0.0012617339888877088,0.1084172649962234,-0.0022572601801462006,0.2489623181742421,9.77039806500452,-0.24475985542144
1560051889813887232,0.005504511492742059,0.10522765520670774,-0.001199744758196175,0.2610651401187089,9.782543394158678,-0.28159388843416233
1560051889823909632,0.00020103955496794668,0.11267009787813365,-0.0022572601801462006,0.2731671980943288,9.785860195516761,-0.2916529958630001
1560051889833932288,-0.0008596547630394663,0.12011253311360104,-0.001199744758196175,0.2867782794168547,9.785860195516761,-0.2916529958630001
1560051889843954432,0.0012617339888877088,0.1264917750005079,-0.0022572601801462006,0.3109812005324776,9.785860195516761,-0.2916529958630001
1560051889853976832,0.003383122624902535,0.12968138479002356,0.0009152860857038758,0.33518374367937703,9.785860195516761,-0.28523770848185537
1560051889863999488,0.0012617339888877088,0.14350307678431484,-0.00014222933624614964,0.3593859912587492,9.785860195516761,-0.27296140426988524
1560051889874021888,0.0023224281909827726,0.14881910301478563,-0.00014222933624614964,0.3613135121897102,9.763505805128544,-0.24938509661769154
1560051889884043776,-0.0019203490810468793,0.1573247539066891,-0.007544837521026249,0.36516417694902326,9.746946719234984,-0.23655152045092684
1560051889894066432,-0.0008596547630394663,0.16370400322955447,-0.004372291139611212,0.3772660194394541,9.746946719234984,-0.2488285442012128
1560051889904089088,-0.0029810433990542923,0.16902001458810822,-0.004372291139611212,0.37203731654468686,9.755641980774497,-0.2786851696097759
1560051889914111232,0.0023224281909827726,0.18496812302335464,-0.00014222933624614964,0.36268985999281095,9.767784640227418,-0.31411484325657835
1560051889924133376,0.0023224281909827726,0.1956001754842962,-0.001199744758196175,0.3747911267259512,9.779928418170854,-0.3386677321398773
1560051889934156032,0.00020103955496794668,0.2094218674785875,-0.0022572601801462006,0.3621301996543392,9.779647801620222,-0.3506608919895484
1560051889944178176,0.0012617339888877088,0.21686429527809636,-0.0022572601801462006,0.325827477486757,9.76750438428309,-0.3506608919895484
1560051889954200832,0.004443817058822297,0.22324354460096174,-0.0022572601801462006,0.33354148585383303,9.755359569319808,-0.3171672717060976
1560051889964223232,0.0023224281909827726,0.2349388201542979,-0.003314775602096226,0.3344879331348905,9.750678255315604,-0.2916529958630001
1560051889974245376,0.0023224281909827726,0.24131803973332921,-0.0022572601801462006,0.3102857401588586,9.762821852953211,-0.2916529958630001
1560051889984267776,0.003383122624902535,0.24131803973332921,-0.004372291139611212,0.3202117252317783,9.774965485225527,-0.30896412584145294
1560051889994290432,0.004443817058822297,0.25195012193810484,-0.00014222933624614964,0.343169635728436,9.784611072465907,-0.3347798974888293
1560051890004312576,0.006565205463012425,0.2583293712609702,-0.005429806445996277,0.35527054311763,9.772467655128775,-0.3716081515251788
1560051890014334976,0.003383122624902535,0.2689614237219118,-0.0022572601801462006,0.34919741959948497,9.778562416437103,-0.4022909797537889
1560051890024357376,0.0023224281909827726,0.2700246170704723,-0.003314775602096226,0.32499574774321044,9.80284971327991,-0.42684298498861595
1560051890034380032,0.004443817058822297,0.28597272550571873,-0.005429806445996277,0.3334073151195117,9.794408113938028,-0.4183096552466664
1560051890044401920,0.0012617339888877088,0.2912887517361895,-0.005429806445996277,0.34192488542986155,9.782265440455621,-0.3951326793064719
1560051890054424576,-0.0029810433990542923,0.2976679713152208,-0.005429806445996277,0.34192488542986155,9.770122707369223,-0.34603111706147305
1560051890064446720,0.00020103955496794668,0.30723683042760186,-0.001199744758196175,0.2915605961422848,9.757979926714171,-0.3309915881717398
1560051890074469632,0.0012617339888877088,0.31255285665807264,-0.007544837521026249,0.2266998778476013,9.74805743512642,-0.3309915881717398
1560051890084491776,-0.0008596547630394663,0.31574249619142236,-0.005429806445996277,0.23880043534328618,9.76020049187866,-0.3309915881717398
1560051890094513920,0.003383122624902535,0.32212174551428774,-0.006487321983511263,0.26274090985783105,9.766403457375873,-0.3610187428688374
1560051890104536576,0.003383122624902535,0.32212174551428774,-0.005429806445996277,0.29904699525518974,9.766403457375873,-0.42240480176863754
1560051890114558976,0.00020103955496794668,0.3391330175542606,-0.001199744758196175,0.270942030005661,9.777176354587858,-0.4402286596847942
1560051890124581120,0.00020103955496794668,0.3391330175542606,-0.007544837521026249,0.24498169119790703,9.782399820315176,-0.4490073650979589
1560051890134603520,0.003383122624902535,0.3391330175542606,-0.004372291139611212,0.24498169119790703,9.770255573166317,-0.4490073650979589
1560051890144625920,0.0023224281909827726,0.345512266877126,-0.006487321983511263,0.2201897976498414,9.75811046407514,-0.4238566008993075
1560051890154648064,0.0023224281909827726,0.3529547095485519,-0.0022572601801462006,0.18877167236672324,9.747928092966808,-0.3880153090634915
1560051890164670720,0.0023224281909827726,0.3518914864561573,-0.004372291139611212,0.21297571672463556,9.760072629009906,-0.36346087785016873
1560051890174693120,0.0023224281909827726,0.35508112598950703,-0.0022572601801462006,0.22559304932988056,9.760590297534902,-0.3565375654238714
1560051890184715520,0.0012617339888877088,0.3603971522199778,-0.0022572601801462006,0.22559304932988056,9.7484465913164,-0.368813951706167
1560051890194738176,0.00020103955496794668,0.36146034556853834,-0.004372291139611212,0.24680836399183442,9.75759163249822,-0.41337501513363156
1560051890204760064,0.005504511492742059,0.36146034556853834,-0.003314775602096226,0.2643703330659335,9.77306813273947,-0.4658506605333644
1560051890214782464,0.003383122624902535,0.36358676200949347,-0.004372291139611212,0.2643703330659335,9.797358314658966,-0.527238003191431
1560051890224805120,0.00020103955496794668,0.3667764015428432,-0.007544837521026249,0.22368571973047405,9.80531790397174,-0.5473538688601245
1560051890234827520,0.0023224281909827726,0.3667764015428432,-0.007544837521026249,0.16913045753990746,9.804463214445713,-0.5464898855757355
1560051890244849664,0.0012617339888877088,0.3667764015428432,-0.006487321983511263,0.19336070714353804,9.792304930548555,-0.5341993944276556
1560051890254872064,-0.0019203490810468793,0.37209242777331397,-0.006487321983511263,0.19483016176475346,9.78015308981403,-0.516145668227341
1560051890264875008,0.0023224281909827726,0.3731556211218745,-0.008602353058541234,0.17067389185407472,9.768032531992816,-0.4916397173839384
1560051890274897920,-0.0029810433990542923,0.3805980935371345,-0.005429806445996277,0.13599031726563993,9.745372481159094,-0.44582344797335327
1560051890284920064,-0.0008596547630394663,0.3763452606552242,-0.010717383671311365,0.10926123966921075,9.727490951408186,-0.40966878811609675
1560051890294942208,0.0012617339888877088,0.3763452606552242,-0.006487321983511263,0.10926123966921075,9.727490951408186,-0.40966878811609675
1560051890304964608,0.00020103955496794668,0.3742188442142691,-0.008602353058541234,0.11726833835216605,9.735525773256466,-0.4421608062956647
1560051890314987008,0.0012617339888877088,0.3731556211218745,-0.004372291139611212,0.12864987776019277,9.748395364009324,-0.489810444012588
1560051890325009152,0.0012617339888877088,0.37102923442475344,-0.005429806445996277,0.12864987776019277,9.772685444477686,-0.5143658946246903
1560051890335031808,-0.0008596547630394663,0.37528203756282963,-0.008602353058541234,0.1508060157621483,9.780301705342207,-0.5445422179689201
1560051890345054208,0.003383122624902535,0.3805980935371345,-0.005429806445996277,0.1992194461181211,9.768155835113093,-0.5813778823716497
1560051890355076608,-0.0008596547630394663,0.38378770332665013,-0.005429806445996277,0.18549203907557626,9.776796023889164,-0.5551741531922774
1560051890365098752,0.0012617339888877088,0.3869772833723317,-0.007544837521026249,0.18891492528817344,9.77969926588612,-0.5245704637737001
1560051890375121408,0.0012617339888877088,0.3848508669313766,-0.009659868133796379,0.273636670683281,9.755408029737843,-0.5122921638823712
1560051890385143808,0.00020103955496794668,0.3944197557875917,-0.006487321983511263,0.2400602635146682,9.739033497595726,-0.4840150669967498
1560051890395165952,0.00020103955496794668,0.3933565326951971,-0.006487321983511263,0.15162789147694802,9.728091252613034,-0.4502211446707274
1560051890405188864,-0.0019203490810468793,0.39654614248471276,-0.006487321983511263,0.22424286775945698,9.740235652204273,-0.4747765245839203
1560051890415211008,0.0012617339888877088,0.40292539180757814,-0.007544837521026249,0.24271319888179035,9.746946719234984,-0.48285330784122493
1560051890425233152,0.005504511492742059,0.41036783447900405,-0.004372291139611212,0.19430164383979934,9.746946719234984,-0.47057520832434774
1560051890435255552,0.004443817058822297,0.4071782246894884,-0.008602353058541234,0.19704720262551287,9.777749279144553,-0.48943571078695697
1560051890445277952,0.0023224281909827726,0.4146206673609143,-0.007544837521026249,0.2062044225700319,9.802361640659203,-0.5169805196311567
1560051890455300352,0.0012617339888877088,0.41993672333521914,-0.004372291139611212,0.2062044225700319,9.79021498433342,-0.5538167310521728
1560051890465322752,-0.0008596547630394663,0.4167470838018694,-0.004372291139611212,0.1984407953841493,9.793651484513509,-0.5670231573510556
1560051890475345152,0.00020103955496794668,0.4252527495656899,-0.007544837521026249,0.18872641456112682,9.80340057404936,-0.5650848812743653
1560051890485367552,-0.0008596547630394663,0.4252527495656899,-0.005429806445996277,0.23713912127204545,9.754817814587605,-0.5159713722714551
1560051890495389952,-0.0008596547630394663,0.4401376051647077,-0.005429806445996277,0.24848444571716716,9.727490951408186,-0.4561142913559056
1560051890505412096,-0.0008596547630394663,0.4454536611390125,-0.00014222933624614964,0.21217631388850572,9.727490951408186,-0.38244688387483994
1560051890515434752,0.00020103955496794668,0.4401376051647077,-0.0022572601801462006,0.2567684507778627,9.71734262467617,-0.3703302111342346
1560051890525457152,0.0012617339888877088,0.44651685448757306,-0.004372291139611212,0.2946666923980439,9.713707870410618,-0.38180177241001445
1560051890535479552,0.003383122624902535,0.4571489366923487,0.0009152860857038758,0.2583620097029256,9.737995398448684,-0.43090869922772906
1560051890545501952,0.006565205463012425,0.45289610381043843,-0.006487321983511263,0.229698329873765,9.762283764350258,-0.4877688664916591
1560051890555524352,0.003383122624902535,0.46246496292281947,-0.0022572601801462006,0.2069143737507727,9.786572622681822,-0.5484342112104353
1560051890565546240,0.005504511492742059,0.4645913793637746,-0.003314775602096226,0.23111777835940173,9.810860437672345,-0.5852648605983642
1560051890575568896,0.0012617339888877088,0.47309701538376103,-0.005429806445996277,0.2294682520146177,9.824772701484449,-0.5958697560002655
1560051890585591296,0.0012617339888877088,0.4773498185218372,-0.003314775602096226,0.19315764828700455,9.824772701484449,-0.5713122625836949
1560051890595613696,0.0012617339888877088,0.48053945805518694,-0.004372291139611212,0.21677920749638058,9.794704537324346,-0.5163612228878949
1560051890605635840,0.003383122624902535,0.48053945805518694,-0.005429806445996277,0.2422811869181225,9.760983614685593,-0.4577182794827242
1560051890615658752,0.0023224281909827726,0.4890450940751734,-0.003314775602096226,0.23017814860065328,9.736693127813878,-0.40860537020243604
1560051890625680896,0.00020103955496794668,0.48798190072661285,-0.003314775602096226,0.20304250178046146,9.735033827823731,-0.38999949962516567
1560051890635703552,0.006565205463012425,0.4911715105161285,-0.003314775602096226,0.16742714638806788,9.746946719234984,-0.39116909155068996
1560051890645725440,0.005504511492742059,0.48798190072661285,-0.0022572601801462006,0.16742714638806788,9.746946719234984,-0.4525471147584466
1560051890655748096,0.008686594330851949,0.49967714653611495,-0.001199744758196175,0.17751439667734828,9.767191827691688,-0.5036958754569965
1560051890665770496,0.004443817058822297,0.490108317167568,-0.004372291139611212,0.20171608267760396,9.815764604599085,-0.5405239024408685
1560051890675792640,0.006565205463012425,0.5007403696285095,-0.006487321983511263,0.21606211921057267,9.814881361862575,-0.5573542614346212
1560051890685815040,0.003383122624902535,0.49542434339803876,-0.004372291139611212,0.22559304932988056,9.800156968590453,-0.5670231573510556
1560051890695837440,0.0023224281909827726,0.5018035927209041,-0.004372291139611212,0.22559304932988056,9.775867868655036,-0.5670231573510556
1560051890705859840,0.0023224281909827726,0.5018035927209041,-0.007544837521026249,0.23297970586574743,9.781229026554136,-0.5595295804736063
1560051890715882240,0.00020103955496794668,0.5049932025104198,-0.00014222933624614964,0.24468025532403087,9.805116235792513,-0.5470480694459501
1560051890725904384,-0.0019203490810468793,0.5113724220894511,-0.007544837521026249,0.20837321121440927,9.780825910342525,-0.5102154500355262
1560051890735927040,-0.0019203490810468793,0.5134988682742403,-0.004372291139611212,0.1917329862595463,9.75653477481908,-0.4683924863120931
1560051890745949440,0.0012617339888877088,0.516688478063756,-0.007544837521026249,0.20383579877315214,9.73224472220242,-0.41928043591687786
1560051890755971840,-0.0008596547630394663,0.5220044745503927,-0.007544837521026249,0.22566818320051124,9.727490951408186,-0.38992328584087355
1560051890765996800,0.0012617339888877088,0.5198780878532716,-0.006487321983511263,0.24008839525327014,9.725035709427264,-0.3703302111342346
1560051890776019456,0.0023224281909827726,0.5251940843399083,-0.006487321983511263,0.2158821849778352,9.712890091353124,-0.3703302111342346
1560051890786041344,0.006565205463012425,0.5273205305246975,-0.004372291139611212,0.19167877780673398,9.729898846075564,-0.4071699695568462
1560051890796064000,0.006565205463012425,0.5283837536170921,-0.006487321983511263,0.16747435991552112,9.766332389519116,-0.4685569112315626
1560051890806086656,0.006565205463012425,0.5336997501037288,-0.007544837521026249,0.15534908457346136,9.766403457375873,-0.5299411620868398
1560051890816108800,0.005504511492742059,0.5315733634066078,-0.004372291139611212,0.13366503261541954,9.780827183894402,-0.5767441898369382
1560051890826130944,0.005504511492742059,0.5326365864990024,-0.007544837521026249,0.09735690314445226,9.817262239956712,-0.601300005087017
1560051890836153344,0.0012617339888877088,0.535826196288518,-0.004372291139611212,0.10908992570005074,9.815131252953966,-0.5966140033849789
1560051890846175744,0.0012617339888877088,0.5326365864990024,-0.006487321983511263,0.12864987776019277,9.800654757724377,-0.5772645056461703
1560051890856198656,0.00020103955496794668,0.5283837536170921,-0.005429806445996277,0.12864987776019277,9.776363059447688,-0.528151596365882
1560051890866220800,-0.0029810433990542923,0.5251940843399083,-0.003314775602096226,0.12151005914206617,9.75207402210134,-0.4573130972052025
1560051890876242944,0.0023224281909827726,0.5273205305246975,-0.003314775602096226,0.10940806658434159,9.72778562931101,-0.37137287723436607
1560051890886265600,0.003383122624902535,0.5294469172218186,-0.005429806445996277,0.09730585560748362,9.679501438934775,-0.3218164112324732
1560051890896288000,0.005504511492742059,0.5379525829856391,-0.004372291139611212,0.09920994316174972,9.668404268633239,-0.315334252195943
1560051890906310144,0.009747288764771711,0.5273205305246975,-0.005429806445996277,0.12341320714602838,9.716980822917874,-0.3767183115911202
1560051890916332544,0.007625899896932187,0.5315733634066078,-0.006487321983511263,0.10019912404301792,9.765558532796625,-0.45734555191877146
1560051890926354944,0.013990065573151966,0.5305101403142132,-0.006487321983511263,0.07268096788857266,9.807522399692509,-0.5432861942483286
1560051890936377600,0.012929372066530997,0.5251940843399083,-0.005429806445996277,0.08478389448454267,9.819666626020604,-0.6292330746376728
1560051890946399744,0.010807983198691473,0.5177517011561505,-0.004372291139611212,0.0898726053552732,9.838850020743187,-0.672485066079108
1560051890956422144,0.006565205463012425,0.5209412514579981,-0.003314775602096226,0.0898726053552732,9.863141645458082,-0.684763256217406
1560051890976467200,0.00020103955496794668,0.516688478063756,-0.005429806445996277,0.07048396915281341,9.796196030397816,-0.6134258551570532
1560051890986489344,0.00020103955496794668,0.5156252549713614,-0.003314775602096226,0.07048396915281341,9.77190570494783,-0.5274830637767194
1560051890996511488,-0.0019203490810468793,0.5198780878532716,-0.004372291139611212,0.07048396915281341,9.757009513181037,-0.4605324321404566
1560051891006533888,-0.005102432150981467,0.5060564256028144,-0.005429806445996277,0.07671016935540319,9.74069875357615,-0.4012470164983041
1560051891016556544,0.0023224281909827726,0.5081828122999354,-0.0022572601801462006,0.11302218435491332,9.704259799585293,-0.3521301414610164
1560051891026578944,0.0012617339888877088,0.5103092584847246,-0.003314775602096226,0.12175487918462707,9.702415907834993,-0.3309915881717398
1560051891036601088,0.005504511492742059,0.507119648695209,-0.005429806445996277,0.10965055009201989,9.726709595758905,-0.3309915881717398
1560051891046623488,0.005504511492742059,0.507119648695209,-0.003314775602096226,0.13268941501512926,9.739245598186226,-0.39040986678756534
1560051891056646144,0.006565205463012425,0.5049932025104198,-0.005429806445996277,0.16132521152557225,9.760280308989012,-0.4473101242217376
1560051891066668032,0.006565205463012425,0.5156252549713614,-0.001199744758196175,0.19763194047580054,9.796715168594458,-0.4964198571401752
1560051891076690688,0.0023224281909827726,0.5134988682742403,-0.007544837521026249,0.2062044225700319,9.833150463233741,-0.5455313944713945
1560051891086713088,0.003383122624902535,0.5156252549713614,-0.006487321983511263,0.21404061068521218,9.859755193423457,-0.5926546689575859
1560051891096735488,-0.0019203490810468793,0.5188149242485451,-0.005429806445996277,0.26245475527631057,9.835462486499527,-0.6294909377862812
1560051891106757888,-0.004041737717061705,0.5198780878532716,-0.005429806445996277,0.2905362461881984,9.824772701484449,-0.618198826349235
1560051891116780288,-0.0029810433990542923,0.5230676976427873,-0.004372291139611212,0.30263942758149864,9.824772701484449,-0.5690852790756752
1560051891126802688,-0.005102432150981467,0.5220044745503927,-0.006487321983511263,0.256766204096575,9.78986505214691,-0.4964439686845071
1560051891136825088,-0.008284515220916056,0.5198780878532716,-0.005429806445996277,0.21266268644487832,9.753427891460525,-0.42714480436329644
1560051891146847488,-0.008284515220916056,0.5294469172218186,-0.007544837521026249,0.17635315641168933,9.716991427573856,-0.36575292289348976
1560051891156869888,-0.005102432150981467,0.5305101403142132,-0.01177489920882635,0.14004281129684396,9.69887403908472,-0.3228801508009361
1560051891166892288,-0.0029810433990542923,0.5305101403142132,-0.010717383671311365,0.10373211838691243,9.688577475126408,-0.2860438384036355
1560051891176914688,-0.0029810433990542923,0.5315733634066078,-0.009659868133796379,0.06742096835660863,9.688577475126408,-0.24920707037999712
1560051891186936832,0.003383122624902535,0.5262573074323029,-0.008602353058541234,0.05109533295035362,9.688577475126408,-0.2596742240292511
1560051891196959232,0.004443817058822297,0.5230676976427873,-0.007544837521026249,0.05109533295035362,9.688577475126408,-0.30878481590340634
1560051891206981888,0.008686594330851949,0.5188149242485451,-0.007544837521026249,0.08553068300387326,9.746170741006237,-0.41612376317034117
1560051891217004288,0.005504511492742059,0.5220044745503927,-0.009659868133796379,0.10926123966921075,9.790068548392378,-0.5138706690176075
1560051891227026432,0.007625899896932187,0.5198780878532716,-0.007544837521026249,0.10926123966921075,9.802215096145705,-0.587542471612742
1560051891237049088,0.003383122624902535,0.516688478063756,-0.008602353058541234,0.10024916265550034,9.83244865050196,-0.6246468505753711
1560051891247071232,0.007625899896932187,0.5241309207351819,-0.0022572601801462006,0.09506130844470134,9.8619515052786,-0.6386819814542747
1560051891257093632,0.00020103955496794668,0.5209412514579981,-0.004372291139611212,0.13143241262517344,9.849785219393041,-0.5894851500182625
1560051891267089408,-0.006163126353076531,0.5113724220894511,-0.005429806445996277,0.13494903051986884,9.804824363708457,-0.5139073246520507
1560051891277111808,0.0012617339888877088,0.5209412514579981,-0.003314775602096226,0.11074339370408094,9.731952994475161,-0.41568322386162015
1560051891287134208,-0.004041737717061705,0.5177517011561505,-0.007544837521026249,0.10926123966921075,9.716089302279785,-0.328985317729477
1560051891297156608,-0.0029810433990542923,0.5188149242485451,-0.0022572601801462006,0.11741345002615233,9.703943790905244,-0.27198369204519146
1560051891307179008,0.00020103955496794668,0.5134988682742403,-0.005429806445996277,0.14162016520413873,9.69179792067613,-0.27198369204519146
1560051891317201408,0.0023224281909827726,0.5188149242485451,-0.006487321983511263,0.13914525324163823,9.706426469080414,-0.30807167493204807
1560051891327223808,0.010807983198691473,0.5145620913666349,-0.004372291139611212,0.13186365762672336,9.733941088358842,-0.36370209938157266
1560051891337246208,0.008686594330851949,0.5209412514579981,-0.004372291139611212,0.15607037044688948,9.782524569275298,-0.4619305951956782
1560051891347268608,0.009747288764771711,0.5124356451818457,-0.007544837521026249,0.15457797275075746,9.80531790397174,-0.54060322172226
1560051891357290752,0.006565205463012425,0.5188149242485451,-0.001199744758196175,0.13037327353417755,9.80531790397174,-0.6019909079836218
1560051891367313408,0.006565205463012425,0.5188149242485451,-0.005429806445996277,0.13989227386913275,9.827881112839204,-0.6177668969219893
1560051891377335552,0.003383122624902535,0.516688478063756,-0.008602353058541234,0.1440814364005424,9.832317484469066,-0.6099736268288166
1560051891387357952,0.0023224281909827726,0.5188149242485451,-0.0022572601801462006,0.13197843944982823,9.795880955947702,-0.5608608471405836
1560051891397380352,0.0012617339888877088,0.516688478063756,-0.008602353058541234,0.09355213329723269,9.777054939486622,-0.5117480535798218
1560051891407402752,-0.0019203490810468793,0.5113724220894511,-0.010717383671311365,0.05853932301968701,9.761921449694404,-0.4656559565265335
1560051891417425152,0.0012617339888877088,0.5081828122999354,-0.006487321983511263,0.11905431248875833,9.725485526873696,-0.44109957624993734
1560051891427447808,0.003383122624902535,0.5113724220894511,-0.007544837521026249,0.14173216032246366,9.708034213267297,-0.42933807660702783
1560051891437469952,0.0012617339888877088,0.5028668158132987,-0.006487321983511263,0.12962963100210848,9.708034213267297,-0.42933807660702783
1560051891447492352,0.004443817058822297,0.5103092584847246,-0.008602353058541234,0.10640110457994975,9.741524038423467,-0.4519089028209918
1560051891457514752,0.006565205463012425,0.507119648695209,-0.007544837521026249,0.10523263148155744,9.770256951990069,-0.49594580998008075
1560051891467537152,0.0023224281909827726,0.5060564256028144,-0.01177489920882635,0.15364965444726014,9.782403724117914,-0.5819021332566621
1560051891477559552,0.0023224281909827726,0.5018035927209041,-0.007544837521026249,0.17608716408150835,9.79455105870302,-0.6151471312409389
1560051891487581952,0.0023224281909827726,0.5039299794180252,-0.009659868133796379,0.1826887891360493,9.80531790397174,-0.6218443065078136
1560051891497604096,-0.0008596547630394663,0.5018035927209041,-0.008602353058541234,0.14638011342363932,9.80531790397174,-0.5850100462269211
1560051891507626752,-0.0029810433990542923,0.5028668158132987,-0.007544837521026249,0.12864987776019277,9.792886755723742,-0.5418898757224566
1560051891517649152,-0.0029810433990542923,0.5081828122999354,-0.007544837521026249,0.12864987776019277,9.76859368804204,-0.49277417864554635
1560051891527671552,-0.006163126353076531,0.49967714653611495,-0.005429806445996277,0.1066256078215091,9.733251564304583,-0.43248827215476154
1560051891537693696,-0.006163126353076531,0.5007403696285095,-0.008602353058541234,0.09359911808786246,9.711773815615903,-0.3824385843042201
1560051891547716352,-0.0019203490810468793,0.507119648695209,-0.009659868133796379,0.10570258268282404,9.723919794409902,-0.35788123606487
1560051891557738752,0.0012617339888877088,0.5081828122999354,-0.006487321983511263,0.09217093051637833,9.727490951408186,-0.38533629308098444
1560051891567761152,0.003383122624902535,0.5060564256028144,-0.007544837521026249,0.07174443348161327,9.730020671663098,-0.43445291925522384
1560051891577783296,0.005504511492742059,0.5081828122999354,-0.006487321983511263,0.08384696398079804,9.754310146454207,-0.4835638204794285
1560051891587805952,0.004443817058822297,0.5018035927209041,-0.003314775602096226,0.1141824639398516,9.77860138519602,-0.5141807286832022
1560051891597828096,0.00020103955496794668,0.5081828122999354,-0.008602353058541234,0.16259258357893147,9.802892071341631,-0.5264584444221028
1560051891607850496,0.0023224281909827726,0.49967714653611495,-0.006487321983511263,0.18921550380382507,9.783452472601873,-0.5166327085011694
1560051891617872640,0.0023224281909827726,0.5007403696285095,-0.009659868133796379,0.18816459826068316,9.766403457375873,-0.49703470923054144
1560051891627895552,-0.0008596547630394663,0.5081828122999354,-0.007544837521026249,0.12764942317763883,9.766403457375873,-0.46019998900012826
1560051891637917696,-0.0019203490810468793,0.5081828122999354,-0.008602353058541234,0.10926123966921075,9.757949834137536,-0.41482347403370406
1560051891647940096,0.003383122624902535,0.49967714653611495,-0.005429806445996277,0.10812411857730202,9.744664545536805,-0.3668694650282059
1560051891657962240,-0.0008596547630394663,0.507119648695209,-0.007544837521026249,0.09602284712933351,9.720377595264234,-0.3300401173540231
1560051891667984896,0.0012617339888877088,0.5018035927209041,-0.005429806445996277,0.06011590134498472,9.71997840503865,-0.3233972786333555
1560051891678007296,0.005504511492742059,0.5039299794180252,-0.005429806445996277,-0.0003892048986302715,9.744264851275101,-0.34794965796141053
1560051891688029440,0.0023224281909827726,0.49542434339803876,-0.008602353058541234,0.03599301880098635,9.768554145762675,-0.41619132364263967
1560051891698051840,0.011868676705312442,0.4922347336085231,-0.0022572601801462006,0.08092429195259651,9.785860195516761,-0.4792681120236023
1560051891708074496,0.0023224281909827726,0.4911715105161285,-0.008602353058541234,0.11723522848418269,9.785860195516761,-0.5161046909661386
1560051891718096896,0.005504511492742059,0.4943611500494782,-0.005429806445996277,0.12035164891254518,9.785860195516761,-0.5276845803691934
1560051891728119296,0.0023224281909827726,0.4911715105161285,-0.007544837521026249,0.10926123966921075,9.785860195516761,-0.5246029267922403
1560051891738141440,0.00020103955496794668,0.4943611500494782,-0.009659868133796379,0.10926123966921075,9.785860195516761,-0.48777028824779933
1560051891748164096,0.0012617339888877088,0.48691867763421826,-0.0022572601801462006,0.10341998263544401,9.779998420691397,-0.44497341221840375
1560051891758186496,0.003383122624902535,0.490108317167568,-0.007544837521026249,0.09129231325585926,9.76782815209191,-0.3957605333972881
1560051891768175872,0.00020103955496794668,0.48798190072661285,-0.005429806445996277,0.07922771150436962,9.755721173690118,-0.3576025353814637
1560051891778198272,-0.0008596547630394663,0.4890450940751734,-0.005429806445996277,0.07048396915281341,9.743577024737519,-0.32758491238351173
1560051891788220416,0.003383122624902535,0.49967714653611495,-0.004372291139611212,0.07048396915281341,9.731432950843878,-0.3153075612660601
1560051891798242816,0.004443817058822297,0.48691867763421826,-0.008602353058541234,0.11135366725015171,9.727490951408186,-0.3279068230798189
1560051891808265216,0.0023224281909827726,0.48479226119326313,-0.008602353058541234,0.16742714638806788,9.72838159437981,-0.35246172836445167
1560051891818287616,0.004443817058822297,0.48479226119326313,-0.004372291139611212,0.16742714638806788,9.740525596519996,-0.3770163046511228
1560051891828310016,0.004443817058822297,0.4837290678447026,-0.003314775602096226,0.15602155936607554,9.752669544175534,-0.4015701846931036
1560051891838332416,0.009747288764771711,0.4922347336085231,-0.001199744758196175,0.13181880007059388,9.764813430698801,-0.42612328354221557
1560051891848354816,0.008686594330851949,0.4890450940751734,-0.004372291139611212,0.13916710856378423,9.787512330224569,-0.45067701605495386
1560051891858377472,0.008686594330851949,0.48266587449614207,-0.003314775602096226,0.13834635347465277,9.802075674855644,-0.4621216843862461
1560051891868399616,0.0023224281909827726,0.4911715105161285,-0.004372291139611212,0.10204091960478659,9.789930750321314,-0.43756771135092815
1560051891878422016,0.004443817058822297,0.48479226119326313,0.0009152860857038758,0.0898726053552732,9.777786778680916,-0.3803683801742403
1560051891888444416,0.003383122624902535,0.4922347336085231,-0.001199744758196175,0.09138751349677147,9.764123151474266,-0.3097854619073803
1560051891898466816,0.004443817058822297,0.48798190072661285,-0.004372291139611212,0.11559207204643447,9.727689392756714,-0.28523052101737284
1560051891908489216,0.005504511492742059,0.48266587449614207,-0.004372291139611212,0.12864987776019277,9.719218843315824,-0.2832907965887524
1560051891918511616,0.004443817058822297,0.4922347336085231,-0.005429806445996277,0.12864987776019277,9.743505650142106,-0.30784355002114405
1560051891928534016,0.009747288764771711,0.4816026514037475,-0.001199744758196175,0.12864987776019277,9.75737077662312,-0.3534740540714532
1560051891938556416,0.009747288764771711,0.48479226119326313,-0.004372291139611212,0.11624594082248453,9.772627365242581,-0.4025829846884496
1560051891948578816,0.005504511492742059,0.47947623496279235,-0.003314775602096226,0.06784041751665079,9.79691574390883,-0.45168918238667355
1560051891958601216,0.010807983198691473,0.47309701538376103,-0.004372291139611212,0.05109533295035362,9.813261202372594,-0.48473842665086253
1560051891968623616,0.006565205463012425,0.47309701538376103,-0.0022572601801462006,0.05109533295035362,9.824772701484449,-0.5073754374085212
1560051891978646016,0.004443817058822297,0.4741602384761556,-0.003314775602096226,0.05109533295035362,9.824772701484449,-0.49509905112622554
1560051891988668416,0.006565205463012425,0.4699074055942454,-0.006487321983511263,0.05654046951036078,9.813844449147687,-0.48834597273357616
1560051891998690560,0.0012617339888877088,0.4614017398304249,-0.007544837521026249,0.06864282029746281,9.789555335034214,-0.48834597273357616
1560051892008712960,0.003383122624902535,0.46884421224568484,-0.005429806445996277,0.08074484952829704,9.765266352765156,-0.4779365489503175
1560051892018735616,0.00020103955496794668,0.4560857135999541,-0.004372291139611212,0.08689819758019392,9.746946719234984,-0.46867665358889
1560051892028757760,0.004443817058822297,0.46246496292281947,-0.003314775602096226,0.0747967452734544,9.746946719234984,-0.46867665358889
1560051892038780416,0.0012617339888877088,0.4592753531333038,-0.004372291139611212,0.09385380698584525,9.746946719234984,-0.46077394746205985
1560051892048802304,-0.0008596547630394663,0.4507696873694833,-0.008602353058541234,0.12965693746426063,9.747452017768058,-0.44798572801273817
1560051892058824960,0.006565205463012425,0.45395929715899896,-0.001199744758196175,0.15386206944802527,9.759597094802576,-0.42343022213022813
1560051892068847360,0.004443817058822297,0.4560857135999541,-0.006487321983511263,0.17806741768327186,9.761064635449152,-0.41506593268976544
1560051892078870016,0.005504511492742059,0.45183288071804384,-0.006487321983511263,0.20227435158887772,9.748918656655153,-0.42734459724155055
1560051892088892160,0.0023224281909827726,0.45183288071804384,-0.001199744758196175,0.16565481046948477,9.757119729550363,-0.4601905212273636
1560051892098914560,0.005504511492742059,0.44439043804661793,-0.007544837521026249,0.1200956612175537,9.76354203639483,-0.47098988900109995
1560051892108936960,0.004443817058822297,0.45289610381043843,-0.006487321983511263,0.08378774514294562,9.751396887588276,-0.39732291688255156
1560051892118959360,0.005504511492742059,0.4422640216056628,-0.006487321983511263,0.04747948747173383,9.731556913554462,-0.34699271928429404
1560051892128981504,0.009747288764771711,0.4401376051647077,-0.007544837521026249,0.010407871169173164,9.708034213267297,-0.31093473150799616
1560051892139004160,0.008686594330851949,0.436947995375192,-0.010717383671311365,-0.050104970578569975,9.708034213267297,-0.29865696899956157
1560051892149026560,0.010807983198691473,0.4231263331247348,-0.006487321983511263,-0.08462512990947602,9.723684635322574,-0.3285702055556712
1560051892159048960,0.012929372066530997,0.4231263331247348,-0.007544837521026249,-0.08462512990947602,9.760121099209243,-0.4145188510945954
1560051892169071104,0.011868676705312442,0.40505180824853326,-0.008602353058541234,-0.07460875995897853,9.776455002638578,-0.43949942750357385
1560051892179093760,0.013990065573151966,0.40505180824853326,-0.007544837521026249,-0.07069958536177655,9.785860195516761,-0.45454955269562297
1560051892189116160,0.011868676705312442,0.400798975366623,-0.006487321983511263,-0.09490666237303631,9.785860195516761,-0.4791070461121935
1560051892199138560,0.008686594330851949,0.3880405064647263,-0.005429806445996277,-0.07381558798061758,9.808588374579042,-0.511322452133519
1560051892209160704,0.009747288764771711,0.3827245099780896,-0.007544837521026249,-0.025932307624933457,9.843701668155909,-0.5470866032492719
1560051892219183360,0.006565205463012425,0.38378770332665013,-0.004372291139611212,-0.0017246571199065197,9.819409594827382,-0.5348075740153694
1560051892229205504,0.005504511492742059,0.37847167709617935,-0.006487321983511263,0.03264562281831694,9.8002179091065,-0.5122182100982902
1560051892239228160,0.0023224281909827726,0.3731556211218745,-0.009659868133796379,0.08106092382837081,9.788070963829167,-0.4753810841238861
1560051892249250304,-0.0008596547630394663,0.36464998510188806,-0.009659868133796379,0.06008447322538819,9.765931687549335,-0.40823800173768865
1560051892259272704,0.0023224281909827726,0.3593339291275832,-0.006487321983511263,0.029034903926682624,9.744265675541762,-0.3425294859628735
1560051892269247232,0.00020103955496794668,0.36146034556853834,-0.003314775602096226,0.016989955169334308,9.73217902209891,-0.30587156543141103
1560051892279269376,0.0012617339888877088,0.35508112598950703,-0.003314775602096226,0.004887866728212579,9.727490951408186,-0.2916529958630001
1560051892289292032,0.0023224281909827726,0.35720754243046215,-0.00014222933624614964,-0.006926606601018042,9.727635417064711,-0.29194509821615466
1560051892299314432,0.007625899896932187,0.3582707357790227,-0.003314775602096226,0.005177289038154972,9.739781222671363,-0.3165033114552727
1560051892309336576,0.006565205463012425,0.35508112598950703,-0.003314775602096226,0.03216793334906904,9.75690651664511,-0.3511288014745959
1560051892319358720,0.003383122624902535,0.3444490437847314,-0.006487321983511263,0.08057877421548819,9.781196957810813,-0.4002404224074608
1560051892329381632,0.004443817058822297,0.345512266877126,-0.005429806445996277,0.0898726053552732,9.80548864307128,-0.4493555405777278
1560051892339404032,0.005504511492742059,0.345512266877126,-0.0022572601801462006,0.09735626166374035,9.82226963695148,-0.48834597273357616
1560051892349426432,0.003383122624902535,0.33594340776474496,-0.004372291139611212,0.13366633325180982,9.810124978159651,-0.48834597273357616
1560051892359448576,0.003383122624902535,0.33594340776474496,-0.00014222933624614964,0.14072627813535496,9.80531790397174,-0.48834597273357616
1560051892369470976,0.003383122624902535,0.33700663085713956,-0.003314775602096226,0.12862310185002584,9.805264162717643,-0.4882916457086866
1560051892379493632,-0.0019203490810468793,0.3274377717447585,-0.006487321983511263,0.11651981462854887,9.7809719601398,-0.4637346621354919
1560051892389515776,0.00020103955496794668,0.3263745486523639,-0.007544837521026249,0.1141054480397543,9.756681253771733,-0.439178708592712
1560051892399538176,0.0023224281909827726,0.3306273815342742,-0.003314775602096226,0.12620862707526923,9.732390479750503,-0.41462196365891923
1560051892409560576,0.004443817058822297,0.3327537979752293,-0.001199744758196175,0.13831209119233634,9.727490951408186,-0.4292729397423064
1560051892419582976,0.003383122624902535,0.33488021441618443,-0.001199744758196175,0.15754626717604697,9.729876120379112,-0.4514187105152363
1560051892429605632,-0.0008596547630394663,0.34338585043617087,-0.004372291139611212,0.20595796884445436,9.74202095240428,-0.4636968280844594
1560051892439627520,0.005504511492742059,0.34338585043617087,-0.004372291139611212,0.24717324732729828,9.761384050581972,-0.49786677317892597
1560051892449650176,0.003383122624902535,0.34870187666664165,-0.0022572601801462006,0.2834825674559933,9.785675286730248,-0.5469800110146648
1560051892459672576,0.003383122624902535,0.3508282931075968,-0.003314775602096226,0.28375895982578214,9.797914029341866,-0.5595387741626322
1560051892469694976,0.004443817058822297,0.35720754243046215,-0.004372291139611212,0.2884846875464183,9.80531790397174,-0.5718172890132669
1560051892479717376,0.0012617339888877088,0.3667764015428432,-0.001199744758196175,0.3005879404840081,9.80531790397174,-0.5840957340600419
1560051892489739776,0.0012617339888877088,0.36996601133235885,-0.0022572601801462006,0.2840578654137608,9.795739031189747,-0.5576433500654364
1560051892499762176,-0.0008596547630394663,0.37209242777331397,-0.00014222933624614964,0.2643703330659335,9.783591071057032,-0.5208028343639998
1560051892509784576,-0.0008596547630394663,0.3742188442142691,-0.006487321983511263,0.2643703330659335,9.771444479319646,-0.48396494351714786
1560051892519806976,-0.0019203490810468793,0.37740845400378475,-0.001199744758196175,0.2572899198614846,9.759298176532276,-0.425579237975729
1560051892529829376,-0.0019203490810468793,0.3848508669313766,-0.004372291139611212,0.24518583975268354,9.74715158479489,-0.35190351369226214
1560051892539852032,-0.0008596547630394663,0.3848508669313766,-0.005429806445996277,0.2092812478171321,9.723063416023654,-0.3506608919895484
1560051892549874432,0.0023224281909827726,0.38910369981328685,-0.006487321983511263,0.19604485585137044,9.721926204306918,-0.36470488342332597
1560051892559896832,0.005504511492742059,0.39548294913615223,-0.005429806445996277,0.22025012144604128,9.758361045043912,-0.40153837904983636
1560051892569918976,0.0023224281909827726,0.3997357820180625,-0.005429806445996277,0.2161621683787585,9.785331951779842,-0.4383709835498739
1560051892579941632,0.005504511492742059,0.4071782246894884,-0.001199744758196175,0.2062044225700319,9.80531790397174,-0.470853013804914
1560051892589964032,0.003383122624902535,0.40398861489997273,-0.005429806445996277,0.2062044225700319,9.80531790397174,-0.4831315877414327
1560051892599986176,0.008686594330851949,0.41036783447900405,-0.004372291139611212,0.18531637939717488,9.791343281489048,-0.46009209662302253
1560051892610008576,0.0023224281909827726,0.41036783447900405,-0.005429806445996277,0.1490084621437267,9.767052378193275,-0.41098077549916623
1560051892620031232,0.003383122624902535,0.41143105757139864,-0.0022572601801462006,0.08914308727645079,9.754582998542748,-0.3379712197012386
1560051892630053632,0.0012617339888877088,0.4018621984590176,-0.007544837521026249,0.05109533295035362,9.746946719234984,-0.28253675218581625
1560051892640075776,0.00020103955496794668,0.3944197557875917,-0.005429806445996277,0.05109533295035362,9.746946719234984,-0.2579798525245474
1560051892650098176,0.0023224281909827726,0.39548294913615223,-0.007544837521026249,-0.04201284529454004,9.73760366325579,-0.22397760998061472
1560051892660120576,0.003383122624902535,0.3880405064647263,-0.009659868133796379,-0.14481635619848285,9.731555738478841,-0.19330650742771205
1560051892670143232,0.007625899896932187,0.3795348704447399,-0.006487321983511263,-0.15692054448795367,9.75584853331481,-0.19330650742771205
1560051892680165376,0.00020103955496794668,0.37209242777331397,-0.006487321983511263,-0.18271252654143574,9.773271782155675,-0.20024986623739924
1560051892690187776,0.007625899896932187,0.35401790289711244,-0.005429806445996277,-0.2190231491318913,9.78541783275382,-0.21252860816171124
1560051892700210176,0.005504511492742059,0.34019621090282115,-0.003314775602096226,-0.24367137362215038,9.774156333876457,-0.22480753500949893
1560051892710232832,0.010807983198691473,0.3327537979752293,-0.0022572601801462006,-0.24161082521380634,9.766403457375873,-0.2370864919275908
1560051892720254976,0.004443817058822297,0.31255285665807264,-0.003314775602096226,-0.19319997963199886,9.766403457375873,-0.2493643899853375
1560051892730277376,0.007625899896932187,0.30511041398664673,-0.005429806445996277,-0.17237308487220537,9.775630968788022,-0.2802993633646816
1560051892740299776,0.003383122624902535,0.2923519748285841,-0.005429806445996277,-0.15643436190232934,9.787782119781975,-0.31909359608202564
1560051892750322432,0.006565205463012425,0.2849095321571582,-0.001199744758196175,-0.12002230964216658,9.799962709599711,-0.36834578334485646
1560051892760344320,0.005504511492742059,0.27215103351142744,-0.00014222933624614964,-0.12435800510873615,9.79851232916865,-0.38999949962516567
1560051892770322688,0.005504511492742059,0.2615189513066518,-0.005429806445996277,-0.16050828259721955,9.786419308463902,-0.38999949962516567
1560051892780344832,0.0023224281909827726,0.2551397317276205,-0.003314775602096226,-0.1275408127769737,9.751100252275233,-0.3314323733759958
1560051892790367232,0.00020103955496794668,0.2476972890561946,-0.006487321983511263,-0.09975258329729633,9.727490951408186,-0.27436156202985845
1560051892800389888,0.003383122624902535,0.24131803973332921,-0.0022572601801462006,-0.08764912341801748,9.727490951408186,-0.22524687990299314
1560051892810412288,0.0023224281909827726,0.2296227790519101,-0.0022572601801462006,-0.08462512990947602,9.718380284080215,-0.22218600891959758
1560051892820434432,0.007625899896932187,0.22218033638048418,-0.004372291139611212,-0.08104003637883146,9.71343065105976,-0.24173758546178736
1560051892830456832,0.009747288764771711,0.20729545103763236,-0.00014222933624614964,-0.05683403304640211,9.749866573880468,-0.3031285552883184
1560051892840478976,0.007625899896932187,0.20304263302763914,0.0019728016232188617,-0.05906767573324083,9.77967004806628,-0.36451956356503207
1560051892850501632,0.005504511492742059,0.19666338370477376,0.0009152860857038758,-0.08327533331200192,9.8039633328789,-0.425914738439067
1560051892860524032,0.008686594330851949,0.19028416412574245,-0.003314775602096226,-0.027482776795030736,9.80531790397174,-0.46411978763986245
1560051892870546432,0.004443817058822297,0.1828417065823995,-0.0022572601801462006,-0.00011077346627232434,9.80531790397174,-0.4715343089380557
1560051892880568832,0.00020103955496794668,0.1722096392495409,-0.005429806445996277,-0.03641868836204028,9.80531790397174,-0.4224229878141994
1560051892890591488,0.00020103955496794668,0.16476721145003204,-0.006487321983511263,-0.04584784617342308,9.787334765273267,-0.38240006728938153
1560051892900613376,0.004443817058822297,0.16476721145003204,-0.00014222933624614964,-0.04752119627636931,9.764724229522901,-0.34556817285011837
1560051892910635776,-0.0029810433990542923,0.1520087276762183,-0.001199744758196175,-0.05962419322708347,9.75257872001578,-0.3087335833001835
1560051892920658432,0.0023224281909827726,0.14137667521527675,-0.003314775602096226,-0.07172786872612019,9.740432859517512,-0.2916529958630001
1560051892930681088,-0.0019203490810468793,0.13606063411288893,-0.004372291139611212,-0.08383188197876931,9.728286945354588,-0.2916529958630001
1560051892940703232,0.0023224281909827726,0.13074459301050112,-0.0022572601801462006,-0.07331645189931797,9.750187168714326,-0.30312536914269095
1560051892950725632,0.0012617339888877088,0.1211757413340786,-0.00014222933624614964,-0.06523648048736064,9.766403457375873,-0.31948386001857826
1560051892960747776,0.004443817058822297,0.11054368143717852,0.0009152860857038758,-0.06523648048736064,9.766403457375873,-0.3440403950095225
1560051892970770688,0.007625899896932187,0.11585971510360782,-0.001199744758196175,-0.06523648048736064,9.766403457375873,-0.3506608919895484
1560051892980792832,0.004443817058822297,0.09778520509932331,-0.00014222933624614964,-0.06523648048736064,9.766403457375873,-0.3522381528466979
1560051892990814976,0.004443817058822297,0.09140597064837497,0.0019728016232188617,-0.06523648048736064,9.766403457375873,-0.36451625236357516
1560051893000837376,0.00020103955496794668,0.0829003197564715,-0.001199744758196175,-0.07798066207476861,9.766403457375873,-0.3703302111342346
1560051893010860032,0.003383122624902535,0.0722682524236129,-0.00014222933624614964,-0.10218723651772255,9.766403457375873,-0.3703302111342346
1560051893020882176,0.005504511492742059,0.06376260153170943,0.005145348004633898,-0.10401375666932466,9.777632376921284,-0.3703302111342346
1560051893030904832,0.00020103955496794668,0.060572984306235256,-0.004372291139611212,-0.10401375666932466,9.778023642377315,-0.3663691241427276
1560051893040926976,0.0023224281909827726,0.05525695807576447,0.0019728016232188617,-0.10401375666932466,9.753732119055305,-0.3540906599605148
1560051893050949632,-0.0008596547630394663,0.03824565629195753,-0.001199744758196175,-0.08656930854089966,9.755699578967947,-0.36835786217187316
1560051893060971776,0.0023224281909827726,0.03611924356898166,-0.003314775602096226,-0.062364794016307144,9.766403457375873,-0.38999949962516567
1560051893070994432,0.0012617339888877088,0.01910794364416435,-0.003314775602096226,-0.038157864826384,9.766403457375873,-0.38999949962516567
1560051893081016832,0.0023224281909827726,0.01698153092118848,-0.00014222933624614964,-0.013951881715190524,9.766403457375873,-0.3963436870731783
1560051893091039232,0.00020103955496794668,0.01272870640473156,0.0019728016232188617,0.010253755100597367,9.766403457375873,-0.408621694888293
1560051893101061376,-0.0008596547630394663,0.007412674597291891,0.0009152860857038758,0.04553313965529287,9.766403457375873,-0.4209007449255538
1560051893111083776,-0.0008596547630394663,0.003159849616087562,-0.001199744758196175,0.06669682471771059,9.766403457375873,-0.42933807660702783
1560051893121106432,0.003383122624902535,0.0020966432545996283,0.0009152860857038758,0.05459281971787388,9.766403457375873,-0.42933807660702783
1560051893131128832,0.00020103955496794668,-0.003219387971905782,0.0009152860857038758,0.07691440644377684,9.757766869719292,-0.43806901254111946
1560051893141150976,0.00020103955496794668,-0.004282594217206864,-0.00014222933624614964,0.11058255096743043,9.746946719234984,-0.4503478023679236
1560051893151173376,0.0012617339888877088,-0.004282594217206864,-0.00014222933624614964,0.12268626921612523,9.746946719234984,-0.4626267218531069
1560051893161195776,-0.0029810433990542923,-0.004282594217206864,-0.003314775602096226,0.14092900067373276,9.753107846296851,-0.4873619713393944
1560051893171218176,0.0012617339888877088,-0.001092975481303618,0.0009152860857038758,0.16513427569912456,9.765252995103406,-0.524195486100377
1560051893181240576,0.0023224281909827726,-0.001092975481303618,-0.001199744758196175,0.20030063432062323,9.77739977676803,-0.5499174723263736
1560051893191262976,0.00020103955496794668,-0.004282594217206864,-0.003314775602096226,0.24028713539170476,9.782173771238494,-0.5744765545860444
1560051893201285376,0.00020103955496794668,0.008475880958779825,-0.00014222933624614964,0.2887034463950676,9.770027179501108,-0.5990351421050304
1560051893211307776,-0.0019203490810468793,0.01379191183672468,-0.003314775602096226,0.3456083706795102,9.757881473677438,-0.6063617649866728
1560051893221330432,0.0023224281909827726,0.025487179954102324,-0.00014222933624614964,0.40371102021702704,9.748157708743545,-0.6063617649866728
1560051893231352576,0.0012617339888877088,0.03292962634350749,-0.001199744758196175,0.44002240615887755,9.760304011530916,-0.6063617649866728
1560051893241374976,-0.005102432150981467,0.042498481737909266,0.0019728016232188617,0.4822974204074223,9.766403457375873,-0.6063617649866728
1560051893251397376,-0.0019203490810468793,0.05313054163480935,-0.00014222933624614964,0.5305867693093379,9.766403457375873,-0.6063617649866728
1560051893261463552,0.0023224281909827726,0.07545787708504559,0.0009152860857038758,0.5249640285740151,9.777288747939622,-0.639374412015013
1560051893271485696,-0.0008596547630394663,0.07864749431051976,-0.003314775602096226,0.5092985181609998,9.785860195516761,-0.6653696917669762
1560051893281508096,0.00020103955496794668,0.09459558043789063,0.004087832467118913,0.4850907363143551,9.785860195516761,-0.6653696917669762
1560051893291530752,-0.0008596547630394663,0.10203803054527505,0.0009152860857038758,0.4692637314179332,9.785860195516761,-0.6483638045452027
1560051893301553152,-0.004041737717061705,0.11692292332408538,-0.005429806445996277,0.45606254647039673,9.785860195516761,-0.621579215277102
1560051893311575296,-0.0019203490810468793,0.13180780123097868,0.0030303169296039267,0.43185480013140765,9.785860195516761,-0.5724629373878373
1560051893321597696,-0.006163126353076531,0.14350307678431484,-0.004372291139611212,0.41356263212519373,9.77992264985751,-0.529346632756579
1560051893331620096,-0.005102432150981467,0.15307193589669588,0.0009152860857038758,0.40145874120187136,9.767776238505228,-0.4925093081137866
1560051893341642496,-0.0019203490810468793,0.17114643102906335,-0.001199744758196175,0.4215610190636659,9.734085503709032,-0.4556744094450715
1560051893351664896,0.00020103955496794668,0.1828417065823995,-0.00014222933624614964,0.42851943903499135,9.71495734678178,-0.4223391385036482
1560051893361687296,-0.0008596547630394663,0.18815774768478732,-0.004372291139611212,0.3922107680380397,9.7392475429603,-0.3977829777396328
1560051893371709696,0.0023224281909827726,0.19453696726381864,-0.001199744758196175,0.40550390836164535,9.746946719234984,-0.42354720160337184
1560051893381732352,0.0012617339888877088,0.2115482839195426,-0.0022572601801462006,0.43985016543984456,9.7489178484112,-0.4706693189864315
1560051893391754496,0.0023224281909827726,0.21686429527809636,-0.003314775602096226,0.45195313988251146,9.773208793858926,-0.49522566316281913
1560051893401776896,0.007625899896932187,0.2296227790519101,-0.00014222933624614964,0.46405650888153893,9.785860195516761,-0.5197828078747968
1560051893411799552,0.004443817058822297,0.24557087261523947,-0.004372291139611212,0.47616025667793754,9.785860195516761,-0.5443407211481445
1560051893421821952,0.0012617339888877088,0.2530133152866654,-0.004372291139611212,0.47764533318151337,9.785860195516761,-0.536582202377075
1560051893431844096,0.0023224281909827726,0.2583293712609702,-0.005429806445996277,0.45765120633220713,9.785860195516761,-0.5276845803691934
1560051893441866496,-0.0008596547630394663,0.27959347618285335,-0.001199744758196175,0.3850321368346881,9.785860195516761,-0.5276845803691934
1560051893451888896,0.00020103955496794668,0.28703591885427926,-0.003314775602096226,0.39391477276825343,9.777681251865175,-0.4946113845586997
1560051893461911552,0.0012617339888877088,0.29660474822282623,-0.0022572601801462006,0.4371369618413471,9.764666333208432,-0.44637314798361866
1560051893471933696,0.0012617339888877088,0.30511041398664673,-0.001199744758196175,0.41292937750119146,9.740374333373904,-0.40953617172999
1560051893481956096,0.0012617339888877088,0.31574249619142236,-0.003314775602096226,0.4000907657094075,9.727490951408186,-0.38999949962516567
1560051893491978752,0.0012617339888877088,0.32850096509331905,-0.003314775602096226,0.4000907657094075,9.727490951408186,-0.38999949962516567
1560051893502001152,0.0023224281909827726,0.33700663085713956,-0.004372291139611212,0.38958831692780027,9.748569112639075,-0.4326174111472858
1560051893512023552,0.0023224281909827726,0.3497650700152022,-0.003314775602096226,0.38070213894955884,9.772863094843414,-0.4784717258064275
1560051893522045952,0.007625899896932187,0.36146034556853834,-0.006487321983511263,0.38070213894955884,9.797157966474717,-0.515311257953571
1560051893532068096,0.004443817058822297,0.36996601133235885,-0.004372291139611212,0.39677818086448763,9.80531790397174,-0.5439933324089126
1560051893542090752,0.007625899896932187,0.3805980935371345,-0.00014222933624614964,0.41721978535890136,9.803806169604428,-0.5654949465196841
1560051893552112896,-0.0008596547630394663,0.3869772833723317,-0.004372291139611212,0.3809105940397598,9.779514401307667,-0.5409384210963168
1560051893562135552,0.00020103955496794668,0.3944197557875917,-0.003314775602096226,0.3668848739236693,9.771994391055111,-0.5163805506427467
1560051893572157952,0.005504511492742059,0.3997357820180625,-0.006487321983511263,0.3789884053557333,9.784140441653257,-0.4918230572261762
1560051893582180352,0.00020103955496794668,0.417810306894264,-0.001199744758196175,0.32875003946665277,9.775433279413487,-0.4461826667720147
1560051893592202752,0.0012617339888877088,0.42206313977617427,-0.006487321983511263,0.2744407004543013,9.763286460994761,-0.41281983535748557
1560051893602224896,0.0012617339888877088,0.42206313977617427,-0.004372291139611212,0.23812825483090572,9.751139797429692,-0.4250991921609545
1560051893612247296,0.0012617339888877088,0.42737916600664505,-0.005429806445996277,0.24144441651461693,9.746946719234984,-0.445418889087577
1560051893622269952,0.004443817058822297,0.43269516249328177,-0.005429806445996277,0.2650115816260313,9.746946719234984,-0.47062824864257286
1560051893632292096,0.0023224281909827726,0.4454536611390125,-0.008602353058541234,0.27711554411919226,9.746946719234984,-0.507465810239615
1560051893642314496,0.003383122624902535,0.4475800478361336,-0.007544837521026249,0.3110643627854807,9.746946719234984,-0.5276845803691934
1560051893652336896,0.0023224281909827726,0.4560857135999541,-0.006487321983511263,0.371588339807197,9.746946719234984,-0.5276845803691934
1560051893662359552,0.003383122624902535,0.4614017398304249,-0.005429806445996277,0.4321099471327959,9.746946719234984,-0.496393387570716
1560051893672381696,0.005504511492742059,0.46778098915329025,-0.010717383671311365,0.47464915768682564,9.746946719234984,-0.4625975598083534
1560051893682404096,0.0012617339888877088,0.4645913793637746,-0.01177489920882635,0.4625467046004234,9.746946719234984,-0.4380422734383698
1560051893692426496,0.0012617339888877088,0.4741602384761556,-0.012832414746341336,0.41918918654109094,9.739106162686511,-0.4372646806893895
1560051893702449152,0.004443817058822297,0.48691867763421826,-0.013889930283856322,0.3591967128543241,9.72855304208191,-0.4506179467644602
1560051893712471296,0.003383122624902535,0.4964875367465993,-0.010717383671311365,0.310784429468965,9.752843598970204,-0.4874527731698186
1560051893722493696,0.006565205463012425,0.49542434339803876,-0.013889930283856322,0.28375895982578214,9.771769309022236,-0.5242887005967649
1560051893732516352,0.007625899896932187,0.5081828122999354,-0.010717383671311365,0.28375895982578214,9.783915648557523,-0.5611257882984724
1560051893742538752,0.006565205463012425,0.5220044745503927,-0.013889930283856322,0.24309396566383648,9.7960626624352,-0.577336564276761
1560051893752560896,0.004443817058822297,0.5262573074323029,-0.010717383671311365,0.21199137547673755,9.802414119190457,-0.5808217256890152
1560051893762516480,0.003383122624902535,0.5315733634066078,-0.010717383671311365,0.23613905135615265,9.790297266875871,-0.5563245075989158
1560051893772539136,0.00020103955496794668,0.5347629731961234,-0.012832414746341336,0.20647764896536783,9.778132338086712,-0.5239170211618561
1560051893782561536,0.004443817058822297,0.5432686389599439,-0.007544837521026249,0.14845373188404357,9.76598677907963,-0.4879247418813078
1560051893792583680,0.006565205463012425,0.5464582487494596,-0.007544837521026249,0.16055787885319256,9.753840115514562,-0.47564536594098006
1560051893802606336,0.003383122624902535,0.5592167473951903,-0.012832414746341336,0.16219254620845525,9.752199706284916,-0.46867665358889
1560051893812628480,0.008686594330851949,0.5592167473951903,-0.007544837521026249,0.15009037630689345,9.76434438583782,-0.46867665358889
1560051893822650880,0.00020103955496794668,0.5570903012104012,-0.009659868133796379,0.21839789477401397,9.766403457375873,-0.48907035514341907
1560051893832673280,0.008686594330851949,0.5655959669742217,-0.007544837521026249,0.27822683598099457,9.771955151590998,-0.5136274942700763
1560051893842695680,0.006565205463012425,0.5783544656199524,-0.010717383671311365,0.25402012316082845,9.796247497767869,-0.5381846038718959
1560051893852718080,0.003383122624902535,0.5772912425275578,-0.01177489920882635,0.24498169119790703,9.790094833684643,-0.539659375236606
1560051893862740480,0.003383122624902535,0.5857968488037102,-0.009659868133796379,0.24648324680668554,9.766403457375873,-0.5273799222579332
1560051893872762880,0.004443817058822297,0.591112904778015,-0.009659868133796379,0.3070018404080499,9.766403457375873,-0.51510100277275
1560051893882785536,0.006565205463012425,0.6017449572389566,-0.005429806445996277,0.31632561623476635,9.766403457375873,-0.5028213202987382
1560051893892807936,0.0023224281909827726,0.6049346265161404,-0.009659868133796379,0.25580162978064835,9.766403457375873,-0.49054128749286324
1560051893902830080,0.00020103955496794668,0.6059977901208669,-0.009659868133796379,0.26486332034246185,9.766403457375873,-0.4580918277434592
1560051893912852480,0.0023224281909827726,0.6134402327922928,-0.014947444896851625,0.265158171317313,9.761070412091762,-0.4239466373450332
1560051893922874880,0.003383122624902535,0.617693065674203,-0.007544837521026249,0.18042460537339056,9.73677639121961,-0.39938661000904824
1560051893932897536,0.005504511492742059,0.6240723447409025,-0.008602353058541234,0.16299595802554917,9.73499556667968,-0.3975864755853316
1560051893942919680,0.005504511492742059,0.6240723447409025,-0.007544837521026249,0.18662085832360462,9.74733796336423,-0.41065758418124837
1560051893952942080,0.003383122624902535,0.6251355083456289,-0.007544837521026249,0.17451659373969636,9.771631507619922,-0.4720549552163736
1560051893962964480,0.008686594330851949,0.6283251776228127,-0.009659868133796379,0.16742714638806788,9.790893248397378,-0.5283664178760675
1560051893972986624,0.005504511492742059,0.6293883412275392,-0.006487321983511263,0.16742714638806788,9.80304123937634,-0.5774867631013626
1560051893983009280,0.006565205463012425,0.6347043377141759,-0.009659868133796379,0.12808029097703483,9.825059942614509,-0.6066506647431271
1560051893993031680,0.0023224281909827726,0.636830724411297,-0.008602353058541234,0.09242550699375794,9.83910679996082,-0.618261483312638
1560051894003054080,-0.0008596547630394663,0.6347043377141759,-0.009659868133796379,0.10452976214568477,9.814813861468748,-0.5814230645189689
1560051894013076224,-0.0008596547630394663,0.6421468398732699,-0.005429806445996277,0.10188842149992933,9.797918819327274,-0.5296254284505849
1560051894023099136,-0.006163126353076531,0.632578010504723,-0.01177489920882635,0.09005169255037165,9.785410909415761,-0.46767741599220497
1560051894033121280,-0.0019203490810468793,0.6400203936884807,-0.006487321983511263,0.11425783188528699,9.724683608638676,-0.3326164783258003
1560051894043143936,-0.0008596547630394663,0.6357675608065705,-0.008602353058541234,0.12374210894821754,9.683652468419773,-0.22742034729046962
1560051894053165824,-0.0008596547630394663,0.6400203936884807,-0.005429806445996277,0.11163896655975293,9.671506815330101,-0.16602863974875978
1560051894063188480,0.004443817058822297,0.6400203936884807,-0.007544837521026249,0.10926123966921075,9.649599563948431,-0.1737023481885807
1560051894073210880,0.007625899896932187,0.632578010504723,-0.006487321983511263,0.10681977405315281,9.644907387047162,-0.21559777760325088
1560051894083233280,0.013990065573151966,0.6347043377141759,-0.01177489920882635,0.09471695682411647,9.717778756280458,-0.32609991491093077
1560051894093255424,0.018232843308831015,0.6315147279246602,-0.009659868133796379,0.07535517036569789,9.768799722995322,-0.4513319031503686
1560051894103278080,0.015050760007071728,0.6357675608065705,-0.0022572601801462006,0.051147160366024465,9.805239888488265,-0.5864032688375658
1560051894113300480,0.01611145444099149,0.6283251776228127,-0.007544837521026249,0.0752487875353079,9.8537938851641,-0.6479501982645428
1560051894123323136,0.007625899896932187,0.6293883412275392,-0.009659868133796379,0.06112692608775816,9.883143886221205,-0.6753183883868676
1560051894133345024,0.003383122624902535,0.6208826754637187,-0.008602353058541234,-0.011484372993426514,9.883143886221205,-0.6507642702870446
1560051894143367680,0.0012617339888877088,0.6240723447409025,-0.01177489920882635,0.0023616093495076006,9.844581629161551,-0.5872243472276565
1560051894153390080,-0.0008596547630394663,0.6219458985561133,-0.008602353058541234,0.03402777011768159,9.798330109624542,-0.5088472040711804
1560051894163412736,-0.0019203490810468793,0.6240723447409025,-0.007544837521026249,0.04613213462818124,9.761888861793311,-0.41061055541519853
1560051894173434624,-0.0008596547630394663,0.6102506230027771,-0.007544837521026249,0.02254090840179692,9.718292355477082,-0.2979107876494025
1560051894183457280,0.0012617339888877088,0.6145034558846874,-0.007544837521026249,-0.025865047690316417,9.669716980702717,-0.17514412402913593
1560051894193479680,0.006565205463012425,0.6059977901208669,-0.006487321983511263,-0.03841453338181353,9.66912073698552,-0.18576559307867346
1560051894203502336,0.010807983198691473,0.5985553474494409,-0.007544837521026249,-0.04584784617342308,9.68318236071008,-0.23121382315378217
1560051894213524480,0.013990065573151966,0.5943025145675307,-0.008602353058541234,-0.04584784617342308,9.71962018680339,-0.32944289009134126
1560051894223547136,0.012929372066530997,0.5974921243570464,-0.003314775602096226,-0.05533772691654346,9.784629763845405,-0.4565606713317213
1560051894233569280,0.009747288764771711,0.591112904778015,-0.008602353058541234,-0.06303147935015325,9.844230409939428,-0.5714969987350429
1560051894243591936,0.011868676705312442,0.5836704621065891,-0.010717383671311365,-0.050927295776645266,9.844230409939428,-0.5960558057473256
1560051894253613824,0.009747288764771711,0.5741016327380422,-0.006487321983511263,-0.0036425708370327534,9.844230409939428,-0.5920896867769812
1560051894263611904,0.003383122624902535,0.5719752460409211,-0.004372291139611212,0.06890953279321206,9.844230409939428,-0.5675555665980352
1560051894273634048,-0.0019203490810468793,0.5698487998561319,-0.01177489920882635,0.023126758578469242,9.820469226265677,-0.5069697302727657
1560051894283656704,0.0012617339888877088,0.5655959669742217,-0.005429806445996277,-0.0070705737685035075,9.787042795905336,-0.4317271428131587
1560051894293679360,0.00020103955496794668,0.5581534648151276,-0.003314775602096226,-0.0070705737685035075,9.738462487767263,-0.33350509058157973
1560051894303701504,0.0023224281909827726,0.5560270781180066,-0.009659868133796379,-0.016440256430211235,9.708685766520356,-0.2542904175396977
1560051894313723648,0.0012617339888877088,0.5485846354465806,-0.008602353058541234,-0.03062786325390157,9.686485828100926,-0.19330650742771205
1560051894323746304,0.0023224281909827726,0.5336997501037288,-0.005429806445996277,-0.054835870895628594,9.67433930818696,-0.19330650742771205
1560051894333768704,0.006565205463012425,0.5379525829856391,-0.007544837521026249,-0.06523648048736064,9.689904642250209,-0.24233208841707582
1560051894343790848,0.010807983198691473,0.5305101403142132,-0.004372291139611212,-0.06523648048736064,9.726344091770832,-0.3282863477793087
1560051894353813248,0.008686594330851949,0.5209412514579981,-0.006487321983511263,-0.03007021387586188,9.786306091626845,-0.4142339889527361
1560051894363836160,0.011868676705312442,0.5134988682742403,-0.008602353058541234,0.006240902151370374,9.82922566770066,-0.5001863840871262
1560051894373858560,0.005504511492742059,0.5113724220894511,-0.006487321983511263,0.042550973739439835,9.841372143648417,-0.586136325100322
1560051894383880448,0.007625899896932187,0.507119648695209,-0.007544837521026249,0.014080532976744407,9.844230409939428,-0.5875864540562432
1560051894393902848,0.0023224281909827726,0.5028668158132987,-0.005429806445996277,-0.02842646266530542,9.838307927236439,-0.5570445154496705
1560051894403925248,0.003383122624902535,0.49329792695708363,-0.007544837521026249,-0.04052910017800133,9.801872480816778,-0.49565534969399583
1560051894413947904,-0.0008596547630394663,0.4837290678447026,-0.005429806445996277,-0.039063465267396756,9.758627689120658,-0.44802889525084094
