#timestamp [ns],w_RS_S_x [rad s^-1],w_RS_S_y [rad s^-1],w_RS_S_z [rad s^-1],a_RS_S_x [m s^-2],a_RS_S_y [m s^-2],a_RS_S_z [m s^-2]
1560000110937764352,0.00020103955496794668,0.03611924356898166,0.005145348004633898,0.13602833826913882,9.739542710667033,-0.3825142344940844
1560000110947787264,0.0023224281909827726,0.0350560353485041,0.0030303169296039267,0.12391173951556815,9.746946719234984,-0.3948062223875438
1560000110957810176,-0.0008596547630394663,0.04781451168635931,-0.00014222933624614964,0.11179502963870372,9.746946719234984,-0.40709832155462305
1560000110967832832,0.003383122624902535,0.04887771990683687,-0.001199744758196175,0.11884344401293294,9.746946719234984,-0.4291106014844517
1560000110977856000,0.00020103955496794668,0.058446575301238646,0.004087832467118913,0.12864987776019277,9.746946719234984,-0.4536943615778607
1560000110987878656,0.003383122624902535,0.05525695807576447,0.004087832467118913,0.12864987776019277,9.746946719234984,-0.47827726338972726
1560000110997901568,0.0023224281909827726,0.05632016257826278,0.0019728016232188617,0.1429579013343561,9.754125859949296,-0.48108839395177394
1560000111007924480,0.00020103955496794668,0.06269940074719038,0.0019728016232188617,0.16719023567624042,9.76628458593789,-0.468796823795937
1560000111017947392,-0.0019203490810468793,0.06269940074719038,-0.0022572601801462006,0.16742714638806788,9.766403457375873,-0.48084751077737004
1560000111027970048,-0.0008596547630394663,0.06695222619314212,-0.00014222933624614964,0.17687477011567612,9.761663053742076,-0.483553776257856
1560000111037992960,0.0012617339888877088,0.07014184341861629,0.004087832467118913,0.20110566840650176,9.749505050669587,-0.4712629369165833
1560000111048015872,0.00020103955496794668,0.07439466886456803,0.0030303169296039267,0.19663807170581013,9.737347240959945,-0.46867665358889
1560000111058038784,-0.0008596547630394663,0.07971070253099732,-0.00014222933624614964,0.18910928806963886,9.72979238582462,-0.46402326978180475
1560000111068061952,0.0023224281909827726,0.07864749431051976,-0.003314775602096226,0.2012251984224302,9.741950252482942,-0.4394406792754133
1560000111078084608,0.0012617339888877088,0.08183711897195245,-0.00014222933624614964,0.17765711929549702,9.739785182719588,-0.44381834066174486
1560000111088107264,0.0012617339888877088,0.0850267287614681,-0.0022572601801462006,0.1291928783192068,9.727627171572095,-0.4684012233179195
1560000111098130176,0.0023224281909827726,0.09140597064837497,-0.004372291139611212,0.11666945636398127,9.727490951408186,-0.4929843672946313
1560000111108153088,0.0012617339888877088,0.09565878865836819,-0.005429806445996277,0.10457099677731474,9.732197434354765,-0.5127734269299367
1560000111118237184,0.003383122624902535,0.0935323870893301,-0.00014222933624614964,0.09242661273350491,9.74438386855792,-0.525093603247391
1560000111128259840,-0.0008596547630394663,0.09778520509932331,-0.003314775602096226,0.0898726053552732,9.756532927922544,-0.5276845803691934
1560000111138283008,0.0012617339888877088,0.10735405677574583,-0.001199744758196175,0.08759158933145439,9.766403457375873,-0.5253705464290839
1560000111148305920,0.0012617339888877088,0.10203803054527505,-0.0022572601801462006,0.07547488063480055,9.766403457375873,-0.5130784472620047
1560000111158328576,0.0012617339888877088,0.10203803054527505,-0.001199744758196175,0.06335877792619296,9.75210337751303,-0.5007869515896589
1560000111168351744,0.0023224281909827726,0.10097482232479749,-0.0022572601801462006,0.051242321362519966,9.727785953460206,-0.48849508904888994
1560000111178374144,0.00020103955496794668,0.10310123876575261,-0.001199744758196175,0.003224476902697067,9.751509852894877,-0.4397821627300078
1560000111188397056,0.0023224281909827726,0.10097482232479749,-0.005429806445996277,-0.04054246055316968,9.756981883416248,-0.4049064205521991
1560000111198419968,0.00020103955496794668,0.09140597064837497,-0.004372291139611212,-0.0768896749360343,9.732665905193977,-0.39261530799855826
1560000111208442880,0.0012617339888877088,0.09459558043789063,-0.001199744758196175,-0.11323728947082388,9.737061362552693,-0.39967494288980215
1560000111218465792,0.00020103955496794668,0.0850267287614681,-0.003314775602096226,-0.1495853487107566,9.744674103234523,-0.4073712309011821
1560000111228488704,-0.0008596547630394663,0.07439466886456803,-0.003314775602096226,-0.1859338549442149,9.732515983605692,-0.3950796799012081
1560000111238511872,0.0012617339888877088,0.06907864263409724,-0.003314775602096226,-0.22228354283597887,9.7346244340894,-0.38999949962516567
1560000111248534528,-0.0029810433990542923,0.06163619252671282,-0.003314775602096226,-0.25863172474834395,9.746782445236892,-0.38999949962516567
1560000111258557440,0.0012617339888877088,0.05100413262981274,0.0009152860857038758,-0.25912284628900295,9.75894152208084,-0.38999949962516567
1560000111268579840,-0.0008596547630394663,0.04356168624040757,-0.00014222933624614964,-0.26848340967208006,9.757010244978304,-0.3757553939929237
1560000111278603008,0.0023224281909827726,0.026550388174579886,-0.00014222933624614964,-0.2927163109975658,9.732692820925479,-0.3388798351050948
1560000111288626176,-0.0029810433990542923,0.014855118198212613,0.0030303169296039267,-0.30742508083313524,9.727490951408186,-0.34065445640624786
1560000111298648832,-0.0019203490810468793,-0.003219387971905782,0.0019728016232188617,-0.30827778518279136,9.729751487774088,-0.3506608919895484
1560000111308671488,-0.0019203490810468793,-0.007472213069296962,-0.00014222933624614964,-0.2598128473662005,9.7419096796561,-0.3506608919895484
1560000111318694656,0.003383122624902535,-0.025546719820349617,0.0009152860857038758,-0.21844337412430753,9.746946719234984,-0.35786057855481707
1560000111328717568,0.0023224281909827726,-0.032989162491775526,-0.001199744758196175,-0.18209485844958562,9.746946719234984,-0.370152148710654
1560000111338740224,0.0023224281909827726,-0.035115573355761764,-0.00014222933624614964,-0.09797879891480353,9.758930019781708,-0.3703302111342346
1560000111348763136,-0.0029810433990542923,-0.0446844324681428,0.0019728016232188617,-0.027171351935321924,9.766403457375873,-0.3750669208011476
1560000111358786048,-0.0008596547630394663,-0.046810845191118666,0.004087832467118913,0.02129115909952374,9.766403457375873,-0.38735792368290534
1560000111368808960,-0.0019203490810468793,-0.054253287862544575,0.0019728016232188617,0.050732163514439085,9.766403457375873,-0.38034906855311523
1560000111378831872,0.003383122624902535,-0.046810845191118666,0.0009152860857038758,0.07496627410895555,9.761905520413519,-0.3680566141143286
1560000111388854784,-0.0008596547630394663,-0.04043160702219106,0.0019728016232188617,0.09920185199336196,9.737585421126012,-0.35576339930792
1560000111398877440,0.0023224281909827726,-0.048937257914094534,-0.001199744758196175,0.09508731175483912,9.734602453765712,-0.3434713376262106
1560000111408900864,0.003383122624902535,-0.04787404969361697,0.0009152860857038758,0.07085346314578231,9.74676133255756,-0.33117900955312574
1560000111418923264,-0.0008596547630394663,-0.04787404969361697,0.0009152860857038758,0.13014408047051496,9.746946719234984,-0.34309633745661683
1560000111428946176,0.0012617339888877088,-0.03724198979671689,0.0019728016232188617,0.15344723519299697,9.746946719234984,-0.355388323408082
1560000111438968832,0.0023224281909827726,-0.04043160702219106,0.004087832467118913,0.1171006765425924,9.746946719234984,-0.367679235769534
1560000111448992000,0.0023224281909827726,-0.03192595798927722,0.0019728016232188617,0.16628233019903482,9.756483615722564,-0.3703302111342346
1560000111459014912,0.003383122624902535,-0.02873633890481342,0.004087832467118913,0.22113016900239693,9.764164178262362,-0.36806646603889853
1560000111469037568,-0.0019203490810468793,-0.025546719820349617,0.0019728016232188617,0.196897339861767,9.752005199268075,-0.35577464011307364
1560000111479060736,0.0012617339888877088,-0.024483513458861683,0.0009152860857038758,0.20096781304141348,9.739846207039301,-0.3506608919895484
1560000111489083648,-0.0019203490810468793,-0.01810427528993408,-0.00014222933624614964,0.22520049816151805,9.727687906677025,-0.3506608919895484
1560000111499106048,0.00020103955496794668,-0.00959862579227283,-0.00014222933624614964,0.20175313742540424,9.727490951408186,-0.3385683782688243
1560000111509128704,-0.0008596547630394663,-0.001092975481303618,-0.00014222933624614964,0.1728730958167821,9.727490951408186,-0.3357064316987528
1560000111519151872,0.0012617339888877088,-0.0021561817266047,-0.0022572601801462006,0.13652263952390858,9.727490951408186,-0.3479986501096443
1560000111529175040,0.00020103955496794668,0.006349468235803957,-0.003314775602096226,0.11915632565091289,9.727490951408186,-0.36029187820827546
1560000111539197696,0.003383122624902535,0.00528626233906343,0.0030303169296039267,0.1048163412766351,9.72972109576822,-0.3725848305964135
1560000111549220864,0.00020103955496794668,0.009539087320267758,-0.003314775602096226,0.08057982656536657,9.741881312226823,-0.3848785014381777
1560000111559243264,0.0012617339888877088,0.014855118198212613,0.0019728016232188617,0.0634151354894768,9.746946719234984,-0.38999949962516567
1560000111569266176,0.0012617339888877088,0.008475880958779825,-0.00014222933624614964,0.051298246666928095,9.746946719234984,-0.38999949962516567
1560000111579289088,0.0012617339888877088,0.01272870640473156,0.0009152860857038758,0.027266452040996057,9.746946719234984,-0.3658256746407621
1560000111589312000,-0.0008596547630394663,0.008475880958779825,-0.0022572601801462006,0.003031485800805745,9.7422873548462,-0.3506608919895484
1560000111599334912,0.0023224281909827726,0.009539087320267758,0.0009152860857038758,-0.021204813906757533,9.730127246853888,-0.3506608919895484
1560000111609357824,0.005504511492742059,0.011665499113748812,-0.004372291139611212,-0.007460079509307296,9.727490951408186,-0.36029798027584
1560000111619365632,0.00020103955496794668,0.003159849616087562,0.0030303169296039267,0.01009837075918473,9.73194581350189,-0.37483385157215093
1560000111629388288,0.003383122624902535,0.00528626233906343,-0.00014222933624614964,-0.002018408780400908,9.756263888127926,-0.3994181960376916
1560000111639411456,0.00020103955496794668,0.004223055977575496,-0.00014222933624614964,-5.382749084811497e-06,9.759313449417892,-0.42400371012807003
1560000111649434112,0.003383122624902535,-0.003219387971905782,0.0009152860857038758,0.012111396790500824,9.747154108909669,-0.4485880545936106
1560000111659457280,-0.0008596547630394663,-0.007472213069296962,-0.0022572601801462006,0.0004075453561190462,9.75889907087612,-0.43692444293124155
1560000111669480448,-0.0029810433990542923,-0.010661831689013357,-0.003314775602096226,-0.011709781717254012,9.761747954817292,-0.4246317161558605
1560000111679502848,0.00020103955496794668,-0.010661831689013357,0.0030303169296039267,-0.02382573503122177,9.749589445805421,-0.41234038450292054
1560000111689526016,0.0012617339888877088,-0.008535419430784896,0.004087832467118913,-0.007491685525041161,9.727913044716203,-0.37118459958726124
1560000111699548416,0.0023224281909827726,-0.015977862566958212,0.0009152860857038758,0.010106671433877687,9.712472416113718,-0.3377217915873556
1560000111709571584,0.0012617339888877088,-0.014914657134965092,-0.001199744758196175,-0.0020094237374802676,9.736789117229772,-0.3745962541955255
1560000111719594496,0.004443817058822297,-0.01172503805050129,0.0030303169296039267,0.014096859510776109,9.75402731385926,-0.4043153893024328
1560000111729617408,0.0012617339888877088,-0.01172503805050129,-0.00014222933624614964,0.05045022692754365,9.766187666723463,-0.428901780598398
1560000111739640320,-0.0029810433990542923,-0.02342030709737375,0.0019728016232188617,0.039194701888173436,9.778345889008005,-0.4414109703960433
1560000111749663232,-0.0019203490810468793,-0.013851450773477159,-0.00014222933624614964,0.040963180900449266,9.771926931272546,-0.4302264198775575
1560000111759685888,-0.0019203490810468793,-0.012788244411989225,0.0009152860857038758,0.06519767908125998,9.73544810611451,-0.38105583034523793
1560000111769708544,-0.004041737717061705,-0.02129389437439788,-0.001199744758196175,0.05153943551717424,9.717985413568883,-0.32228327994796485
1560000111779731712,-0.0019203490810468793,-0.019167481651422014,0.0009152860857038758,0.03170669674789384,9.708034213267297,-0.2697524729392722
1560000111789754368,0.004443817058822297,-0.020230688012909948,-0.00014222933624614964,0.03170669674789384,9.708034213267297,-0.2574610316111849
1560000111799777536,-0.0008596547630394663,-0.022357100735885815,-0.001199744758196175,0.038750663856324724,9.722171278364646,-0.28089813140610176
1560000111809800448,0.0023224281909827726,-0.01704106985794096,0.0030303169296039267,0.050867912946730084,9.74649029299872,-0.3300687400959929
1560000111819823104,0.003383122624902535,-0.019167481651422014,0.0030303169296039267,0.06298381336888234,9.746946719234984,-0.3671733181566126
1560000111829846016,-0.0008596547630394663,-0.01704106985794096,0.004087832467118913,0.08894884241431293,9.756211584717285,-0.39468253823835675
1560000111839868672,-0.0008596547630394663,-0.014914657134965092,0.0030303169296039267,0.1374145231190405,9.780529542705859,-0.4069743450079202
1560000111849891840,-0.0019203490810468793,-0.015977862566958212,0.0009152860857038758,0.12911734276705938,9.776366380874956,-0.3904737331467682
1560000111859914496,-0.0019203490810468793,-0.00959862579227283,0.004087832467118913,0.11144864324716654,9.764208370829566,-0.3614539393001679
1560000111869937408,0.0023224281909827726,-0.005345800578694798,0.0030303169296039267,0.12356409239257936,9.752050367757075,-0.3122906202445251
1560000111879960320,-0.0019203490810468793,-0.005345800578694798,0.0009152860857038758,0.11459034259109878,9.732838152225488,-0.270258417959387
1560000111889983232,-0.0008596547630394663,-0.005345800578694798,0.0009152860857038758,0.09035908648362329,9.708522390971298,-0.23338539973660946
1560000111900005888,0.0012617339888877088,0.001033437125485398,0.0019728016232188617,0.0898726053552732,9.719948544207002,-0.2326451150633293
1560000111910029056,0.00020103955496794668,0.001033437125485398,0.0030303169296039267,0.0898726053552732,9.741340545213351,-0.24197919708533672
1560000111920051712,0.0023224281909827726,-0.0021561817266047,0.0030303169296039267,0.0898726053552732,9.777816116819375,-0.2665622990852847
1560000111930074624,0.0023224281909827726,-0.008535419430784896,-0.001199744758196175,0.04265817492873502,9.785860195516761,-0.29114285280385893
1560000111940097792,0.0012617339888877088,-0.007472213069296962,-0.001199744758196175,-0.0070705737685035075,9.78368329669868,-0.3069209366236063
1560000111950120448,0.00020103955496794668,-0.0064090067078090285,0.0009152860857038758,-0.0070705737685035075,9.771525402117234,-0.2823394964484138
1560000111960143360,-0.007223820786996293,-0.00959862579227283,-0.00014222933624614964,0.006953481387409605,9.73825717856112,-0.2221889775887459
1560000111970166016,-0.004041737717061705,-0.01172503805050129,0.0009152860857038758,0.03118560069540728,9.68962331490809,-0.1361488523752123
1560000111980189440,-0.005102432150981467,-0.01172503805050129,-0.00014222933624614964,0.055422270762153926,9.664778600948873,-0.11023974429111176
1560000111990212096,0.0012617339888877088,-0.01172503805050129,-0.001199744758196175,0.09341117104542847,9.663468639137532,-0.12287092305982723
1560000112000235008,0.00020103955496794668,-0.012788244411989225,0.0030303169296039267,0.15398030573804738,9.69993776961408,-0.19660601362034782
1560000112010257408,0.0023224281909827726,-0.004282594217206864,-0.00014222933624614964,0.19570257432387028,9.745866737844954,-0.30859158582538443
1560000112020280320,0.005504511492742059,0.0020966432545996283,-0.00014222933624614964,0.21698510091384657,9.790179180014134,-0.41840134162837794
1560000112030303488,0.0023224281909827726,0.003159849616087562,-0.0022572601801462006,0.16852144062054683,9.814495519677925,-0.4675665417966252
1560000112040326144,0.00020103955496794668,0.00528626233906343,-0.001199744758196175,0.09907990091774718,9.810735743698542,-0.45286932436346433
1560000112050349568,-0.0008596547630394663,0.004223055977575496,-0.003314775602096226,0.014272773945126493,9.786420632768287,-0.39141593441175976
1560000112060372224,-0.007223820786996293,0.003159849616087562,-0.004372291139611212,0.0004828669865889028,9.750230491499295,-0.30595388115703237
1560000112070394880,0.00020103955496794668,0.00528626233906343,-0.001199744758196175,-0.01619324772394999,9.718336234364534,-0.23380494354340803
1560000112080417280,-0.0019203490810468793,0.004223055977575496,-0.001199744758196175,-0.040423927431984315,9.694020445201645,-0.18464207755893774
1560000112090440704,0.003383122624902535,0.003159849616087562,0.0009152860857038758,-0.017634692471502175,9.688577475126408,-0.21179928668611148
1560000112100463616,0.0012617339888877088,0.008475880958779825,-0.0022572601801462006,0.018757527959441442,9.6971934821425,-0.2675573303952689
1560000112110486272,0.00020103955496794668,0.0020966432545996283,0.0009152860857038758,0.05535870848270302,9.746165859500866,-0.35419634588233173
1560000112120399104,0.003383122624902535,0.0020966432545996283,0.004087832467118913,0.0635083022937005,9.773403626032326,-0.43953600362221057
1560000112130421504,0.006565205463012425,-0.003219387971905782,-0.00014222933624614964,0.05139361079374061,9.785560869982392,-0.5255664113282126
1560000112140444160,-0.0008596547630394663,-0.0021561817266047,0.0030303169296039267,0.03928073843699396,9.785860195516761,-0.5156989685159389
1560000112150467328,-0.0008596547630394663,-0.0021561817266047,0.0009152860857038758,0.02262633383732711,9.772192035992816,-0.4849857714078038
1560000112160490240,-0.0019203490810468793,-0.00959862579227283,-0.001199744758196175,-0.0016027601897953755,9.735721343626762,-0.4235361991413738
1560000112170513152,0.00020103955496794668,-0.003219387971905782,-0.00014222933624614964,0.0023102054257190755,9.70866349183737,-0.38111907000207473
1560000112180535808,0.00020103955496794668,-0.007472213069296962,0.0009152860857038758,0.016531540460409333,9.690691614937778,-0.3485236551124294
1560000112190558976,0.0023224281909827726,-0.0064090067078090285,0.0009152860857038758,0.040763372967326,9.702850087943247,-0.3362323502815015
1560000112200581632,0.00020103955496794668,-0.008535419430784896,0.0009152860857038758,0.07194155266634777,9.715007360616344,-0.3591888997791517
1560000112210604544,0.0023224281909827726,-0.0064090067078090285,0.0009152860857038758,0.10828519429703154,9.727164460164579,-0.40834855567696565
1560000112220627456,0.007625899896932187,-0.005345800578694798,-0.001199744758196175,0.12105195484803415,9.76298674689717,-0.4694757538891139
1560000112230650112,0.00020103955496794668,-0.005345800578694798,0.0019728016232188617,0.1241322795487568,9.781326729833758,-0.5034322943221046
1560000112240673024,-0.0019203490810468793,0.001033437125485398,0.0009152860857038758,0.1120164702211296,9.769168365313961,-0.49114108958441305
1560000112250695936,0.00020103955496794668,-0.0021561817266047,0.0019728016232188617,0.09990191481921332,9.766403457375873,-0.44087194363130566
1560000112260718848,0.00020103955496794668,-0.004282594217206864,0.0009152860857038758,0.08570247937091609,9.762218788311019,-0.3815385167989781
1560000112270741760,-0.0008596547630394663,0.001033437125485398,0.0009152860857038758,0.061471943606384166,9.737903749911927,-0.3323759380802358
1560000112280764672,-0.0029810433990542923,-0.003219387971905782,-0.00014222933624614964,0.037242231487464444,9.720540071398162,-0.2972686623518496
1560000112290787584,0.00020103955496794668,0.0020966432545996283,0.0009152860857038758,0.013012559932302978,9.708382682663705,-0.27268824492343224
1560000112300810240,0.0012617339888877088,-0.0021561817266047,-0.00014222933624614964,0.02408629466344458,9.719843782915406,-0.2958608714248204
1560000112310833152,0.0012617339888877088,0.003159849616087562,0.0009152860857038758,0.036201969170243084,9.736512850273813,-0.3250033360511419
1560000112320855808,0.005504511492742059,0.003159849616087562,-0.00014222933624614964,0.04831712894013137,9.760827671694077,-0.36187494824091415
1560000112330878976,-0.0029810433990542923,0.004223055977575496,-0.001199744758196175,0.06043342031150978,9.766403457375873,-0.37980346816696986
1560000112340901888,0.0023224281909827726,-0.001092975481303618,-0.001199744758196175,0.06841847245766165,9.764330705692423,-0.38371330987864827
1560000112350924544,0.00020103955496794668,-2.9769236002535893e-05,-0.00014222933624614964,0.05630331268777337,9.752172991827647,-0.34684169768887607
1560000112360947712,0.0012617339888877088,0.00528626233906343,-0.00014222933624614964,0.04418839785231013,9.740015869418675,-0.3029639227818051
1560000112370970368,0.00020103955496794668,-0.0021561817266047,-0.00014222933624614964,0.03207439040157582,9.727859918172156,-0.25380646834785026
1560000112380993024,0.00020103955496794668,-0.0064090067078090285,0.004087832467118913,0.043454817643432335,9.727490951408186,-0.2284780375763507
1560000112391015936,0.0023224281909827726,0.006349468235803957,0.0019728016232188617,0.05109533295035362,9.722999711306663,-0.22205641598758713
1560000112401039104,0.0023224281909827726,-0.004282594217206864,0.004087832467118913,0.05109533295035362,9.710841057570555,-0.24663938627076315
1560000112411061760,0.003383122624902535,-0.001092975481303618,0.0009152860857038758,0.06041411006912714,9.726736764929997,-0.2712217454664747
1560000112421084672,-0.0008596547630394663,-2.9769236002535893e-05,-0.00014222933624614964,0.07048396915281341,9.749000216095496,-0.2978807884438434
1560000112431107840,0.003383122624902535,0.003159849616087562,0.005145348004633898,0.07048396915281341,9.761159231309001,-0.334756337753513
1560000112441130752,0.0012617339888877088,-0.0064090067078090285,0.0030303169296039267,0.07048396915281341,9.759488565439193,-0.3506608919895484
1560000112451153152,-0.0019203490810468793,0.0020966432545996283,-0.00014222933624614964,0.07048396915281341,9.747330237166556,-0.3506608919895484
1560000112461176064,0.00020103955496794668,0.0020966432545996283,0.0030303169296039267,0.0822170955661604,9.746946719234984,-0.3149519799542293
1560000112471199232,-0.0019203490810468793,-0.003219387971905782,-0.001199744758196175,0.08541229388010087,9.74247096428296,-0.2871281174439552
1560000112481221888,0.003383122624902535,0.001033437125485398,0.0009152860857038758,0.07329659384176447,9.730313314588388,-0.27483703195805387
1560000112491245056,-0.0029810433990542923,-2.9769236002535893e-05,0.0009152860857038758,0.07048396915281341,9.727490951408186,-0.2814221626799679
1560000112501267968,0.004443817058822297,0.003159849616087562,-0.00014222933624614964,0.07048396915281341,9.731567218735666,-0.29783434946802845
1560000112511290624,0.003383122624902535,0.0020966432545996283,-0.0022572601801462006,0.07048396915281341,9.755880233195464,-0.33470321196067626
1560000112521313536,-0.0008596547630394663,0.007412674597291891,-0.0022572601801462006,0.07048396915281341,9.766403457375873,-0.3715729514898742
1560000112531336192,0.0023224281909827726,0.001033437125485398,0.0019728016232188617,0.07048396915281341,9.766403457375873,-0.4084426910190721
1560000112541359104,0.0023224281909827726,0.009539087320267758,0.0030303169296039267,0.05877263696037002,9.766403457375873,-0.39778793331533085
1560000112551382272,-0.0008596547630394663,0.00528626233906343,-0.0022572601801462006,0.055532702454596725,9.761950501759145,-0.3809962909394755
1560000112561404928,-0.0008596547630394663,0.006349468235803957,0.0009152860857038758,0.06764714194150226,9.749793510707322,-0.3564166775657229
1560000112571428096,0.0023224281909827726,0.004223055977575496,-0.00014222933624614964,0.07976229569117449,9.746946719234984,-0.34124825348840887
1560000112581450752,0.00020103955496794668,0.003159849616087562,-0.0022572601801462006,0.08586392600130584,9.744935439689883,-0.3309915881717398
1560000112591473664,0.0023224281909827726,0.00528626233906343,-0.00014222933624614964,0.061633750392185264,9.732778404348897,-0.3309915881717398
1560000112601496576,0.0012617339888877088,0.006349468235803957,0.0009152860857038758,0.05109533295035362,9.727490951408186,-0.3449019857052611
1560000112611519488,0.00020103955496794668,0.004223055977575496,-0.004372291139611212,0.05109533295035362,9.727490951408186,-0.369518049096055
1560000112621519616,0.0023224281909827726,0.011665499113748812,0.0019728016232188617,0.03940745254803249,9.750948233867652,-0.3940443382218931
1560000112631542272,0.0023224281909827726,0.007412674597291891,-0.001199744758196175,0.02729214476916455,9.766403457375873,-0.40966878811609675
1560000112641565440,0.0023224281909827726,0.00528626233906343,-0.00014222933624614964,0.015175688205491561,9.766403457375873,-0.40966878811609675
1560000112651588352,0.00020103955496794668,0.004223055977575496,-0.001199744758196175,0.01231806054543405,9.75711238336844,-0.3908836439958969
1560000112661611008,0.00020103955496794668,0.007412674597291891,0.0019728016232188617,0.01231806054543405,9.744954259341737,-0.3663015534525591
1560000112671633408,0.0012617339888877088,0.001033437125485398,0.0019728016232188617,0.01231806054543405,9.732796175943216,-0.3417184959747552
1560000112681656576,-0.0019203490810468793,0.0020966432545996283,0.0019728016232188617,0.01231806054543405,9.727490951408186,-0.32406274724161355
1560000112691679744,-0.0019203490810468793,-0.003219387971905782,-0.003314775602096226,0.01231806054543405,9.727490951408186,-0.311770538409166
1560000112701702656,0.0023224281909827726,-0.0021561817266047,0.0030303169296039267,0.02399222548555618,9.739205537224075,-0.33500860800744514
1560000112711725568,0.0023224281909827726,-0.008535419430784896,0.0009152860857038758,0.027305310615096126,9.746946719234984,-0.3506608919895484
1560000112721748480,0.0012617339888877088,-0.007472213069296962,-0.005429806445996277,0.015189394361637795,9.746946719234984,-0.3506608919895484
1560000112731771136,0.0012617339888877088,-0.005345800578694798,-0.00014222933624614964,0.03080689709537749,9.756223608221026,-0.36941737076099007
1560000112741793792,0.00020103955496794668,-0.0064090067078090285,-0.00014222933624614964,0.05306702447063766,9.764424840354842,-0.3879992676891686
1560000112751816704,0.0012617339888877088,-0.00959862579227283,0.0009152860857038758,0.06518337293156744,9.752265933623786,-0.3757075339722586
1560000112761839616,0.00020103955496794668,-0.0064090067078090285,0.005145348004633898,0.07730012668794607,9.746946719234984,-0.3495857288464766
1560000112771862784,0.00020103955496794668,-0.004282594217206864,0.0019728016232188617,0.08941748387574112,9.746946719234984,-0.31270742897429527
1560000112781885440,-0.0008596547630394663,-0.0064090067078090285,0.0030303169296039267,0.0898726053552732,9.735246073965502,-0.3113222996808087
1560000112791908864,-0.0019203490810468793,-0.0064090067078090285,0.004087832467118913,0.08548450370400519,9.723087436696124,-0.31577391950620787
1560000112801931264,0.0023224281909827726,-0.0064090067078090285,-0.003314775602096226,0.07336873167678987,9.710929108423489,-0.32806506844547245
1560000112811953920,-0.0019203490810468793,-0.00959862579227283,-0.0022572601801462006,0.07048396915281341,9.726563151603827,-0.3309915881717398
1560000112821977088,0.003383122624902535,-0.004282594217206864,0.0019728016232188617,0.07048396915281341,9.748914605522156,-0.3349703607760449
1560000112832000000,0.0023224281909827726,-0.003219387971905782,-0.001199744758196175,0.07048396915281341,9.761073331510751,-0.3595534915097873
1560000112842022656,0.0023224281909827726,-0.003219387971905782,0.0009152860857038758,0.07048396915281341,9.759575044972783,-0.3634271926613875
1560000112852045312,0.0012617339888877088,-2.9769236002535893e-05,0.0009152860857038758,0.07048396915281341,9.747416427470936,-0.3511357321776082
1560000112862068480,-0.0019203490810468793,-0.0021561817266047,0.0009152860857038758,0.07048396915281341,9.735257814469366,-0.32702650946587514
1560000112872091136,0.00020103955496794668,-2.9769236002535893e-05,-0.00014222933624614964,0.07048396915281341,9.73188196894738,-0.3113222996808087
1560000112882114048,0.003383122624902535,0.006349468235803957,-0.00014222933624614964,0.07048396915281341,9.744040197054327,-0.3113222996808087
1560000112892137216,-0.0008596547630394663,-0.007472213069296962,-0.00014222933624614964,0.06126377482968737,9.746946719234984,-0.30196863491000897
1560000112902159872,0.00020103955496794668,0.0020966432545996283,0.0009152860857038758,0.05109533295035362,9.746946719234984,-0.29362904919000177
1560000112912182784,0.0012617339888877088,-0.004282594217206864,-0.00014222933624614964,0.05109533295035362,9.746946719234984,-0.30592134066881577
1560000112922205952,0.0012617339888877088,-0.004282594217206864,-0.003314775602096226,0.05109533295035362,9.746946719234984,-0.325104519622311
1560000112932228864,-0.0008596547630394663,-0.004282594217206864,0.0030303169296039267,0.05109533295035362,9.746946719234984,-0.3496872657770404
1560000112942251520,0.0012617339888877088,0.006349468235803957,-0.003314775602096226,0.05109533295035362,9.746946719234984,-0.3388569707255367
1560000112952274432,0.00020103955496794668,-2.9769236002535893e-05,0.0030303169296039267,0.05109533295035362,9.746946719234984,-0.3265660932791729
1560000112962297088,0.0023224281909827726,0.0020966432545996283,0.0009152860857038758,0.05109533295035362,9.746946719234984,-0.31427545578240207
1560000112972320256,0.0023224281909827726,0.001033437125485398,-0.0022572601801462006,0.06030055431541432,9.737709625516645,-0.3113222996808087
1560000112982342912,0.00020103955496794668,0.003159849616087562,0.0019728016232188617,0.06855161874943787,9.727490951408186,-0.3113222996808087
1560000112992366080,-0.0008596547630394663,-0.005345800578694798,-0.00014222933624614964,0.05643588258867609,9.727490951408186,-0.3113222996808087
1560000113002388736,0.0012617339888877088,0.0020966432545996283,0.0009152860857038758,0.05787084949206386,9.73428992764177,-0.3181958924463002
1560000113012411392,0.00020103955496794668,0.001033437125485398,-0.001199744758196175,0.0699876302118671,9.746448661759583,-0.33048806467907055
1560000113022434560,0.0023224281909827726,-0.005345800578694798,0.0030303169296039267,0.07048396915281341,9.746946719234984,-0.3309915881717398
1560000113032457472,-0.0008596547630394663,-0.004282594217206864,-0.001199744758196175,0.07048396915281341,9.746946719234984,-0.33540517093633465
1560000113042479872,0.003383122624902535,-0.001092975481303618,0.0030303169296039267,0.07048396915281341,9.746946719234984,-0.3476970603410832
1560000113052502784,0.0012617339888877088,0.001033437125485398,0.0009152860857038758,0.07048396915281341,9.746946719234984,-0.3506608919895484
1560000113062526208,-0.0008596547630394663,0.0020966432545996283,-0.0022572601801462006,0.07048396915281341,9.746946719234984,-0.3487084651826696
1560000113072548608,0.0012617339888877088,0.003159849616087562,0.0019728016232188617,0.07048396915281341,9.746946719234984,-0.3364163930423726
1560000113082571520,0.0012617339888877088,0.008475880958779825,-0.001199744758196175,0.0637137140535423,9.746946719234984,-0.33785984868687274
1560000113092594688,0.004443817058822297,0.004223055977575496,0.0019728016232188617,0.05159545610772729,9.746946719234984,-0.35015352910822023
1560000113102617600,0.0012617339888877088,0.0020966432545996283,-0.00014222933624614964,0.06271248862341192,9.735289340076251,-0.3388755677384712
1560000113112640256,0.00020103955496794668,0.001033437125485398,0.0019728016232188617,0.06613305552433728,9.731856929732094,-0.33981938549516827
1560000113122641920,0.0023224281909827726,0.008475880958779825,0.0030303169296039267,0.05402634109646689,9.744005562704233,-0.3643833346672182
1560000113132664320,0.00020103955496794668,0.004223055977575496,-0.00014222933624614964,0.060283853023588796,9.746946719234984,-0.3610086718624374
1560000113142687488,0.00020103955496794668,0.007412674597291891,0.0009152860857038758,0.07048396915281341,9.748869457854648,-0.3526046381235676
1560000113152710400,0.003383122624902535,0.006349468235803957,0.0009152860857038758,0.07048396915281341,9.761028003106157,-0.3648960255676159
1560000113162733312,-0.0008596547630394663,0.00528626233906343,0.0009152860857038758,0.07048396915281341,9.759620265563257,-0.3634729073243237
1560000113172756224,-0.0008596547630394663,0.006349468235803957,-0.001199744758196175,0.07048396915281341,9.747461539574662,-0.35118133716848676
1560000113182779136,0.0012617339888877088,0.009539087320267758,0.0009152860857038758,0.07048396915281341,9.735303394271565,-0.338889776185036
1560000113192802048,0.00020103955496794668,0.006349468235803957,0.0009152860857038758,0.07048396915281341,9.731836305204661,-0.3309915881717398
1560000113202824704,-0.0008596547630394663,0.00528626233906343,0.0009152860857038758,0.07048396915281341,9.743993232057864,-0.3309915881717398
1560000113212847616,-0.0029810433990542923,0.0020966432545996283,-0.00014222933624614964,0.0613107548757852,9.746946719234984,-0.3402975928188246
1560000113222870528,-0.004041737717061705,0.006349468235803957,0.0009152860857038758,0.04919459361959511,9.746946719234984,-0.3506608919895484
1560000113232893440,0.0012617339888877088,0.007412674597291891,0.0030303169296039267,0.03708040612327053,9.746946719234984,-0.3506608919895484
1560000113242916352,-0.0029810433990542923,0.004223055977575496,-0.004372291139611212,0.03844847747350313,9.740181595625105,-0.35750027126877176
1560000113252939008,0.00020103955496794668,0.003159849616087562,-0.001199744758196175,0.050564717828475686,9.72802340374309,-0.36979191447085763
1560000113262961920,-0.0019203490810468793,0.010602293681755692,-0.00014222933624614964,0.06268021311663102,9.73911594330874,-0.3585776204484314
1560000113272985088,0.00020103955496794668,0.003159849616087562,-0.001199744758196175,0.07048396915281341,9.742619937846944,-0.34628662218779965
1560000113283007744,0.00020103955496794668,0.004223055977575496,-0.001199744758196175,0.07048396915281341,9.730462902505959,-0.33399615779829855
1560000113293030656,-0.0008596547630394663,0.0020966432545996283,-0.001199744758196175,0.07048396915281341,9.736676308708185,-0.34027775898839413
1560000113303053312,0.003383122624902535,0.009539087320267758,-0.001199744758196175,0.0686038659618497,9.74883342622574,-0.3487535726461072
1560000113313076224,0.003383122624902535,0.006349468235803957,-0.00014222933624614964,0.05648895822964192,9.760990887167562,-0.33646329093566474
1560000113323099136,0.00020103955496794668,0.008475880958779825,-0.0022572601801462006,0.05109533295035362,9.759657965073464,-0.3378107752593195
1560000113333122304,0.00020103955496794668,0.00528626233906343,-0.0022572601801462006,0.05109533295035362,9.747499130601343,-0.35010244550593667
1560000113343145472,0.00020103955496794668,0.007412674597291891,-0.00014222933624614964,0.05109533295035362,9.746946719234984,-0.3506608919895484
1560000113353168128,0.0023224281909827726,0.004223055977575496,-0.00014222933624614964,0.05109533295035362,9.742640147637164,-0.35501473358197744
1560000113363190528,0.0023224281909827726,0.003159849616087562,0.0019728016232188617,0.05109533295035362,9.730484124214808,-0.3673041845228579
1560000113373213184,0.00020103955496794668,0.00528626233906343,0.0030303169296039267,0.06022751749657946,9.727490951408186,-0.3518014419657088
1560000113383236608,-0.0019203490810468793,0.00528626233906343,-0.003314775602096226,0.07048396915281341,9.729357171192744,-0.3309915881717398
1560000113393259520,0.0012617339888877088,0.0020966432545996283,0.0030303169296039267,0.07048396915281341,9.741514929370803,-0.3309915881717398
1560000113403282176,0.0012617339888877088,0.009539087320267758,0.0009152860857038758,0.06378159645085273,9.746946719234984,-0.3377909836319696
1560000113413305344,0.00020103955496794668,0.010602293681755692,0.0009152860857038758,0.0516656801973944,9.746946719234984,-0.35008228846289746
1560000113423328000,0.003383122624902535,0.010602293681755692,-0.001199744758196175,0.05109533295035362,9.75853243545798,-0.3506608919895484
1560000113433350912,0.0012617339888877088,0.009539087320267758,0.0009152860857038758,0.05109533295035362,9.762115987311054,-0.3506608919895484
1560000113443373568,-0.0029810433990542923,0.006349468235803957,-0.0022572601801462006,0.05109533295035362,9.749957261322457,-0.3506608919895484
1560000113453396736,0.003383122624902535,0.015918324559700547,-0.001199744758196175,0.05109533295035362,9.746946719234984,-0.3414121964482803
1560000113463419392,0.00020103955496794668,0.010602293681755692,0.0019728016232188617,0.054783877458010305,9.746946719234984,-0.3291206199077746
1560000113473442304,0.00020103955496794668,0.011665499113748812,0.0019728016232188617,0.07901621416021054,9.746946719234984,-0.31682906890780055
1560000113483465472,0.0023224281909827726,0.009539087320267758,0.0019728016232188617,0.0898726053552732,9.746946719234984,-0.3181076764326639
1560000113493488128,-0.0019203490810468793,0.006349468235803957,0.004087832467118913,0.0898726053552732,9.746946719234984,-0.3303994832022273
1560000113503511040,0.0023224281909827726,0.01379191183672468,-0.00014222933624614964,0.06680821527871388,9.746946719234984,-0.34269072190789035
1560000113513533696,0.0012617339888877088,0.007412674597291891,-0.001199744758196175,0.046836317479525665,9.746946719234984,-0.35498156383377244
1560000113523556864,0.00020103955496794668,0.007412674597291891,0.0009152860857038758,0.03472011302634674,9.746946719234984,-0.3672731706143262
1560000113533579776,0.0023224281909827726,0.011665499113748812,0.0009152860857038758,0.03170669674789384,9.746946719234984,-0.3610956805557294
1560000113543602688,-0.0008596547630394663,0.01272870640473156,0.0019728016232188617,0.033537216430389816,9.746946719234984,-0.3506608919895484
1560000113553625344,0.00020103955496794668,0.007412674597291891,-0.003314775602096226,0.04565363690161735,9.746946719234984,-0.3506608919895484
1560000113563648256,0.00020103955496794668,0.010602293681755692,-0.00014222933624614964,0.05109533295035362,9.746946719234984,-0.34388955462605947
1560000113573670912,0.00020103955496794668,0.006349468235803957,-0.001199744758196175,0.05109533295035362,9.746946719234984,-0.33159828643285816
1560000113583693824,0.0023224281909827726,0.01272870640473156,0.0009152860857038758,0.05109533295035362,9.746946719234984,-0.35436236413203565
1560000113593716992,0.00020103955496794668,0.008475880958779825,0.0019728016232188617,0.05534287540303254,9.746946719234984,-0.3703302111342346
1560000113603739648,-0.0029810433990542923,0.008475880958779825,0.0019728016232188617,0.06746001639283414,9.746946719234984,-0.3703302111342346
1560000113613762304,0.00020103955496794668,0.009539087320267758,0.0009152860857038758,0.06142391514266693,9.746946719234984,-0.36113899768668656
1560000113623845120,0.00020103955496794668,0.00528626233906343,0.0009152860857038758,0.04927215441753618,9.746946719234984,-0.3506608919895484
1560000113633868032,0.00020103955496794668,0.003159849616087562,0.005145348004633898,0.03715634627003184,9.746946719234984,-0.3506608919895484
1560000113643890688,-0.0008596547630394663,0.008475880958779825,0.006202863542148884,0.038373359946637514,9.75363679886601,-0.3506608919895484
1560000113653913600,0.00020103955496794668,0.00528626233906343,-0.00014222933624614964,0.050490609037042875,9.765796609389971,-0.3506608919895484
1560000113663936768,0.0023224281909827726,0.00528626233906343,-0.001199744758196175,0.05109533295035362,9.75485163367111,-0.3506608919895484
1560000113673959424,0.004443817058822297,0.010602293681755692,0.004087832467118913,0.05533362483911787,9.746946719234984,-0.3506608919895484
1560000113683982336,0.0023224281909827726,0.009539087320267758,0.0019728016232188617,0.06745015341523214,9.746946719234984,-0.3506608919895484
1560000113694004992,0.00020103955496794668,0.006349468235803957,-0.006487321983511263,0.07048396915281341,9.746946719234984,-0.3506608919895484
1560000113704027904,0.0012617339888877088,0.006349468235803957,0.0009152860857038758,0.07048396915281341,9.746946719234984,-0.3506608919895484
1560000113714051072,0.0012617339888877088,0.001033437125485398,0.0019728016232188617,0.07048396915281341,9.746946719234984,-0.3506608919895484
1560000113724073984,0.0023224281909827726,0.008475880958779825,0.0030303169296039267,0.06382847407561562,9.746946719234984,-0.3506608919895484
1560000113734096640,0.00020103955496794668,0.00528626233906343,-0.001199744758196175,0.05171266592811128,9.746946719234984,-0.3506608919895484
1560000113744119552,-0.0008596547630394663,0.0020966432545996283,0.0019728016232188617,0.062595175643089,9.746946719234984,-0.33899457892768786
1560000113754142464,0.00020103955496794668,0.007412674597291891,-0.001199744758196175,0.07048396915281341,9.74270381218985,-0.3309915881717398
1560000113764165376,0.0023224281909827726,0.008475880958779825,0.0030303169296039267,0.07048396915281341,9.730545150344561,-0.3309915881717398
1560000113774188288,-0.0019203490810468793,0.009539087320267758,0.0019728016232188617,0.06141119070419169,9.74569978991745,-0.3401957030931888
1560000113784210944,0.00020103955496794668,0.004223055977575496,0.0009152860857038758,0.054695684410710495,9.764596958588443,-0.34700842368831775
1560000113794233856,0.0023224281909827726,0.008475880958779825,-0.00014222933624614964,0.07892802111291072,9.752438232599847,-0.3224253121104383
1560000113804257024,0.0023224281909827726,0.011665499113748812,-0.00014222933624614964,0.0898726053552732,9.746946719234984,-0.3248035847971829
1560000113814279680,0.00020103955496794668,0.010602293681755692,0.0019728016232188617,0.0898726053552732,9.746946719234984,-0.34938779270969994
1560000113824302336,0.004443817058822297,0.008475880958779825,-0.001199744758196175,0.0898726053552732,9.746946719234984,-0.3506608919895484
1560000113834325504,0.003383122624902535,0.01272870640473156,0.0019728016232188617,0.0898726053552732,9.746946719234984,-0.3463819557204111
1560000113844348416,-0.0029810433990542923,0.01272870640473156,-0.0022572601801462006,0.0898726053552732,9.746946719234984,-0.334088202178977
1560000113854371328,-0.0019203490810468793,0.007412674597291891,0.0009152860857038758,0.0898726053552732,9.746946719234984,-0.3309915881717398
1560000113864393984,0.003383122624902535,0.018044737282676415,0.0009152860857038758,0.08808023314054728,9.748745387097374,-0.32917327120470624
1560000113874417152,0.0012617339888877088,0.01272870640473156,0.0009152860857038758,0.07596197519473226,9.760906210020316,-0.31687960036294205
1560000113884440064,-0.0029810433990542923,0.015918324559700547,-0.00014222933624614964,0.07048396915281341,9.759740278060713,-0.3113222996808087
1560000113894462464,0.003383122624902535,0.01698153092118848,-0.003314775602096226,0.07048396915281341,9.747581046038167,-0.3113222996808087
1560000113904485632,-0.0008596547630394663,0.020171150005652283,0.0009152860857038758,0.07048396915281341,9.746946719234984,-0.3113222996808087
1560000113914508288,0.003383122624902535,0.01698153092118848,0.0009152860857038758,0.0746967972369431,9.746946719234984,-0.315596108838099
1560000113924531200,-0.0008596547630394663,0.015918324559700547,-0.001199744758196175,0.08681386619074224,9.746946719234984,-0.3278885734770788
1560000113934554112,0.00020103955496794668,0.018044737282676415,-0.001199744758196175,0.08081373688472172,9.746946719234984,-0.3309915881717398
1560000113944577536,0.003383122624902535,0.023360769090116085,0.0019728016232188617,0.072272434509837,9.745152061457656,-0.3309915881717398
1560000113954599936,0.0012617339888877088,0.022297560869638522,-0.0022572601801462006,0.08438874687296363,9.732993797318167,-0.3309915881717398
1560000113964622848,-0.0019203490810468793,0.021234356367140217,0.0019728016232188617,0.08323918056746386,9.727490951408186,-0.32426214395132774
1560000113974645760,-0.0008596547630394663,0.02761359453606782,0.0009152860857038758,0.07112128294092648,9.727490951408186,-0.3119688386444958
1560000113984668672,0.00020103955496794668,0.025487179954102324,-0.004372291139611212,0.07048396915281341,9.750529218829229,-0.3113222996808087
1560000113994691328,-0.0019203490810468793,0.025487179954102324,0.0019728016232188617,0.07048396915281341,9.766403457375873,-0.31558977798503257
1560000114004714240,0.0023224281909827726,0.020171150005652283,-0.0022572601801462006,0.07048396915281341,9.766403457375873,-0.32788169442431087
1560000114014737152,0.0023224281909827726,0.023360769090116085,-0.00014222933624614964,0.07048396915281341,9.757320252418936,-0.3309915881717398
1560000114024760064,-0.0029810433990542923,0.026550388174579886,0.0019728016232188617,0.07226386699790653,9.748732868911933,-0.3309915881717398
1560000114034782976,0.0012617339888877088,0.02442397545160402,-0.001199744758196175,0.08438129623027414,9.7608928602106,-0.3309915881717398
1560000114044805888,0.0023224281909827726,0.03186641812302993,0.0009152860857038758,0.0898726053552732,9.759753872844001,-0.32426936188924915
1560000114054828800,0.0023224281909827726,0.033992830846005795,-0.0022572601801462006,0.0898726053552732,9.747594062320038,-0.31197671450616926
1560000114064851456,0.00020103955496794668,0.02974000540005406,-0.001199744758196175,0.10134329412632123,9.746946719234984,-0.3113222996808087
1560000114074874368,-0.0019203490810468793,0.02974000540005406,-0.004372291139611212,0.10926123966921075,9.746946719234984,-0.3113222996808087
1560000114084897536,-0.0029810433990542923,0.028676799038566125,-0.003314775602096226,0.10926123966921075,9.746946719234984,-0.3113222996808087
1560000114094920192,0.003383122624902535,0.0350560353485041,-0.0022572601801462006,0.10926123966921075,9.746946719234984,-0.302147306887873
1560000114104943104,-0.0019203490810468793,0.0403720690149334,-0.003314775602096226,0.11282901331084726,9.746946719234984,-0.2916529958630001
1560000114114966272,0.004443817058822297,0.03930886451243509,0.0019728016232188617,0.13722146800175608,9.746946719234984,-0.2916529958630001
1560000114124884992,0.0012617339888877088,0.046751303465881744,0.0009152860857038758,0.161274024272795,9.746946719234984,-0.2916529958630001
1560000114134907904,-0.0029810433990542923,0.04356168624040757,-0.00014222933624614964,0.18550780899926123,9.746946719234984,-0.2916529958630001
1560000114144930560,-0.0008596547630394663,0.05206733713231104,-0.00014222933624614964,0.1982778864229647,9.746946719234984,-0.2916529958630001
1560000114154953472,0.0023224281909827726,0.05738337079874034,0.0009152860857038758,0.21039435355173106,9.746946719234984,-0.2831518271762031
1560000114164976128,0.00020103955496794668,0.06482580975218699,-0.001199744758196175,0.222510768122046,9.746946719234984,-0.2585682040589455
1560000114174999296,0.0012617339888877088,0.06801543441361968,-0.0022572601801462006,0.22559304932988056,9.746946719234984,-0.2523144035542604
1560000114185021952,-0.004041737717061705,0.07333146064409046,-0.001199744758196175,0.22559304932988056,9.745178749252002,-0.25410177642734183
1560000114195045120,0.00020103955496794668,0.08077391075147489,-0.0022572601801462006,0.22559304932988056,9.733019870460152,-0.2663940949218972
1560000114205067776,0.00020103955496794668,0.08715314520242323,-0.001199744758196175,0.22559304932988056,9.734120536255777,-0.27198369204519146
1560000114215090432,0.0023224281909827726,0.09140597064837497,-0.0022572601801462006,0.22559304932988056,9.746279451129604,-0.27198369204519146
1560000114225113600,0.00020103955496794668,0.09991162154027844,-0.003314775602096226,0.21414133451890605,9.746946719234984,-0.29521868033414184
1560000114235136512,0.0012617339888877088,0.10948047321670096,0.004087832467118913,0.20202486769862657,9.746946719234984,-0.3113222996808087
1560000114245159424,0.00020103955496794668,0.11160688965765608,-0.0022572601801462006,0.18990816490302567,9.746946719234984,-0.3113222996808087
1560000114255182080,0.003383122624902535,0.12330215033907521,-0.00014222933624614964,0.19583957299833418,9.746946719234984,-0.30216789089794877
1560000114265205504,-0.0008596547630394663,0.12223894955455616,-0.003314775602096226,0.20445240523658284,9.746946719234984,-0.2898756156672535
1560000114275227904,0.003383122624902535,0.13074459301050112,-0.0022572601801462006,0.1923369993069564,9.746946719234984,-0.27758482256171013
1560000114285250816,0.0012617339888877088,0.13499742589241137,-0.0022572601801462006,0.1802207210442851,9.746946719234984,-0.27198369204519146
1560000114295273728,-0.0008596547630394663,0.13606063411288893,-0.004372291139611212,0.16810472453667719,9.746946719234984,-0.27198369204519146
1560000114305296640,0.004443817058822297,0.14243986856383728,0.0009152860857038758,0.17886556474706652,9.758425306830834,-0.26037970944254146
1560000114315319552,0.0012617339888877088,0.1466926865738305,0.0009152860857038758,0.1826502161272762,9.762223249083341,-0.24808852960444294
1560000114325342464,0.00020103955496794668,0.1520087276762183,-0.003314775602096226,0.17053475990133665,9.75006524601085,-0.2357977094178942
1560000114335365632,0.00020103955496794668,0.15094551945574075,-0.005429806445996277,0.17643541119649686,9.746946719234984,-0.2417837691006542
1560000114345388288,0.0023224281909827726,0.16476721145003204,-0.00014222933624614964,0.18508072914667098,9.746946719234984,-0.25583476635098723
1560000114355410688,0.0023224281909827726,0.16370400322955447,-0.003314775602096226,0.17296466064156646,9.746946719234984,-0.28041765858500783
1560000114365433856,-0.0019203490810468793,0.16476721145003204,-0.005429806445996277,0.17400666829864259,9.753549346995134,-0.2916529958630001
1560000114375456768,-0.0019203490810468793,0.17114643102906335,-0.004372291139611212,0.18612374551416144,9.765708976749767,-0.2916529958630001
1560000114385479680,-0.0029810433990542923,0.17114643102906335,-0.004372291139611212,0.16396643023719026,9.754938649122018,-0.3032430576259265
1560000114395502592,0.00020103955496794668,0.1753992639109736,-0.003314775602096226,0.14388588399969687,9.746946719234984,-0.30710955824085706
1560000114405525504,-0.0008596547630394663,0.18071529014144438,-0.003314775602096226,0.1317695367189426,9.746946719234984,-0.2948178149458732
1560000114415548416,-0.0019203490810468793,0.1828417065823995,-0.007544837521026249,0.11965238518589702,9.737918074431393,-0.2733975263184032
1560000114425571072,0.003383122624902535,0.18177849836192195,-0.0022572601801462006,0.11098715934704866,9.725758969663707,-0.2505635012012293
1560000114435594240,0.0023224281909827726,0.19028416412574245,-0.004372291139611212,0.12310462580930374,9.713598942188813,-0.2382706344971912
1560000114445616896,0.0012617339888877088,0.1892209559052649,-0.004372291139611212,0.12864987776019277,9.721223726425457,-0.24597904629758105
1560000114455639808,0.0023224281909827726,0.19347375904334108,-0.003314775602096226,0.12864987776019277,9.745543825712964,-0.2705654375935462
1560000114465662976,0.004443817058822297,0.20197942480716158,-0.004372291139611212,0.14006843614550832,9.76986405284933,-0.30673524268077573
1560000114475685632,0.0012617339888877088,0.19985300836620645,-0.004372291139611212,0.16047934986948506,9.785860195516761,-0.32678461495358735
1560000114485708544,-0.0029810433990542923,0.20410582637619967,-0.008602353058541234,0.19683163874686865,9.785860195516761,-0.31449178482097373
1560000114495731456,-0.006163126353076531,0.20729545103763236,-0.003314775602096226,0.19721072406856333,9.767809609590422,-0.30219840501501977
1560000114505754112,-0.0019203490810468793,0.2115482839195426,-0.003314775602096226,0.18853901150383004,9.745217536200705,-0.28466035145605806
1560000114515777024,-0.0029810433990542923,0.21686429527809636,-0.0022572601801462006,0.20065715545585688,9.733057428208395,-0.23548608276695857
1560000114525799936,-0.0019203490810468793,0.2189907117190515,-0.003314775602096226,0.19306324734156097,9.727490951408186,-0.2129758035820819
1560000114535823104,-0.0019203490810468793,0.2296227790519101,-0.004372291139611212,0.16882744972783345,9.727490951408186,-0.2129758035820819
1560000114545845760,0.0012617339888877088,0.23387561193382034,-0.004372291139611212,0.14459450679060834,9.716034531050777,-0.2129758035820819
1560000114555868416,0.003383122624902535,0.23919163816429112,-0.001199744758196175,0.12450546412924397,9.71635194653923,-0.22558902046366178
1560000114565891328,0.004443817058822297,0.23600202837477546,-0.005429806445996277,0.11238785356925954,9.740671684264845,-0.26246807349501083
1560000114575914496,0.00020103955496794668,0.2349388201542979,-0.006487321983511263,0.10026966826713879,9.7559698741108,-0.27198369204519146
1560000114585937152,-0.0008596547630394663,0.24344445617428434,-0.005429806445996277,0.09847389223436012,9.764677157821508,-0.27547401094340396
1560000114595960064,0.00020103955496794668,0.2476972890561946,-0.006487321983511263,0.15906194503428228,9.75251698574276,-0.30006005587670725
1560000114605982976,0.00020103955496794668,0.25195012193810484,-0.003314775602096226,0.19994985946701394,9.746946719234984,-0.3113222996808087
1560000114616005888,-0.0008596547630394663,0.2562029548200151,-0.005429806445996277,0.2241857870444656,9.746946719234984,-0.3113222996808087
1560000114626029312,0.0012617339888877088,0.26364536774760694,-0.0022572601801462006,0.2141788189655062,9.735492962419636,-0.2881633655629714
1560000114636052224,-0.0008596547630394663,0.26470859084000153,-0.004372291139611212,0.19377569096284253,9.723333489172267,-0.2677808126356895
1560000114646075136,0.005504511492742059,0.2700246170704723,-0.001199744758196175,0.15742253735773284,9.711173208618593,-0.2554876900881723
1560000114656097792,0.003383122624902535,0.2700246170704723,-0.004372291139611212,0.13005971218087814,9.726075713216872,-0.270553455332212
1560000114666120448,0.005504511492742059,0.2764038663933377,-0.005429806445996277,0.10926123966921075,9.748671045244587,-0.2933961602062839
1560000114676143616,0.0012617339888877088,0.2710878401628669,-0.003314775602096226,0.10926123966921075,9.760831868167529,-0.3056898406276314
1560000114686166528,0.003383122624902535,0.28065669927524795,-0.00014222933624614964,0.10269555353096638,9.759814708842137,-0.30466156879412276
1560000114696189184,0.0023224281909827726,0.2849095321571582,-0.001199744758196175,0.09057823357840175,9.7476548260227,-0.29236883874694986
1560000114706212608,-0.0008596547630394663,0.2891623352952344,-0.006487321983511263,0.1469370955530261,9.73549430605122,-0.2569186878658938
1560000114716235264,0.0023224281909827726,0.290225558387629,-0.005429806445996277,0.1826744049649992,9.727490951408186,-0.23684645005650895
1560000114726257920,0.0023224281909827726,0.290225558387629,-0.003314775602096226,0.17055833645989468,9.727490951408186,-0.24913789138459624
1560000114736280576,0.003383122624902535,0.3008575811047365,-0.003314775602096226,0.16742714638806788,9.727490951408186,-0.2523144035542604
1560000114746303744,0.004443817058822297,0.29660474822282623,-0.004372291139611212,0.1639973151358625,9.727490951408186,-0.25579388362319155
1560000114756326656,0.006565205463012425,0.3061736370790413,-0.005429806445996277,0.13976426034402004,9.727490951408186,-0.2803777260799644
1560000114766349568,0.006565205463012425,0.3040472206380862,-0.007544837521026249,0.11553061920263617,9.753821630440124,-0.3182713386632254
1560000114776372480,0.003383122624902535,0.3040472206380862,-0.006487321983511263,0.09129648129503788,9.802460149458652,-0.367441235533718
1560000114786395648,0.005504511492742059,0.3114896633095121,-0.0022572601801462006,0.11268140931916164,9.793872873668892,-0.4050386563761359
1560000114796418304,0.007625899896932187,0.31467927309902777,-0.004372291139611212,0.12864987776019277,9.785860195516761,-0.43352947038023615
1560000114806440704,-0.0008596547630394663,0.3168056895399829,0.0009152860857038758,0.12864987776019277,9.785860195516761,-0.44582091170832344
1560000114816463872,-0.004041737717061705,0.31574249619142236,-0.003314775602096226,0.15557843143306066,9.76784477222797,-0.4307951367487067
1560000114826486784,0.0023224281909827726,0.32318493886284827,-0.004372291139611212,0.18340651242756772,9.745236175856045,-0.40102220391893484
1560000114836509696,-0.005102432150981467,0.3242481322114088,-0.004372291139611212,0.15917200716517765,9.733076971745934,-0.33955893826717803
1560000114846532864,-0.004041737717061705,0.32850096509331905,-0.001199744758196175,0.15458930284588512,9.720917150561874,-0.2780942079727279
1560000114856555520,-0.0029810433990542923,0.32850096509331905,-0.001199744758196175,0.16670626251777446,9.70875762928862,-0.216632399585158
1560000114866578176,-0.0019203490810468793,0.3380698242057001,-0.005429806445996277,0.1788227228378765,9.685163022796907,-0.20141527849541016
1560000114876601088,0.0012617339888877088,0.34125943399521574,-0.007544837521026249,0.17856863365154332,9.677396864607987,-0.20585632116165775
1560000114886624000,0.00020103955496794668,0.3423226273437763,-0.003314775602096226,0.15433499297570466,9.70171561803278,-0.24273296681588835
1560000114896646912,0.005504511492742059,0.34125943399521574,-0.005429806445996277,0.1390699572588767,9.726033879314906,-0.29780630660106455
1560000114906669824,0.006565205463012425,0.34338585043617087,-0.004372291139611212,0.1303467111288007,9.750352306445219,-0.36098926680238863
1560000114916692480,0.0012617339888877088,0.35401790289711244,-0.00014222933624614964,0.14246349066838634,9.774670987461665,-0.4347423193558416
1560000114926715648,0.003383122624902535,0.3582707357790227,-0.003314775602096226,0.14803851207413032,9.798990693248967,-0.47531379874314456
1560000114936738560,0.00020103955496794668,0.35614431933806756,-0.005429806445996277,0.14803851207413032,9.823309707883041,-0.48760646528379603
1560000114946761472,-0.0019203490810468793,0.3593339291275832,-0.006487321983511263,0.14803851207413032,9.79049042357855,-0.4767935006151497
1560000114956784128,-0.0008596547630394663,0.3678395948914037,-0.004372291139611212,0.14803851207413032,9.75814373279266,-0.44362615470562855
1560000114966807296,-0.004041737717061705,0.36358676200949347,-0.006487321983511263,0.14803851207413032,9.733825585760083,-0.3698728825540555
1560000114976829696,-0.0029810433990542923,0.36996601133235885,-0.003314775602096226,0.13011842808080032,9.709507923717114,-0.29612243417920386
1560000114986852864,-0.004041737717061705,0.36996601133235885,-0.00014222933624614964,0.11432715189815866,9.690272043873694,-0.23607127635683522
1560000114996875776,-0.0008596547630394663,0.3689028179837983,-0.007544837521026249,0.15067565577130104,9.702430769862291,-0.26065437835678323
1560000115006898688,-0.0029810433990542923,0.3678395948914037,-0.008602353058541234,0.14782925916240827,9.708034213267297,-0.2786108869050917
1560000115016921344,0.00020103955496794668,0.3805980935371345,-0.003314775602096226,0.1114799989289082,9.708034213267297,-0.2909027032527859
1560000115026944512,0.003383122624902535,0.37102923442475344,-0.004372291139611212,0.10926123966921075,9.742287140531166,-0.3609084129883939
1560000115036967168,0.004443817058822297,0.37740845400378475,-0.0022572601801462006,0.10926123966921075,9.774644048015812,-0.43049481416215135
1560000115046989824,0.003383122624902535,0.3795348704447399,-0.003314775602096226,0.10926123966921075,9.798962612376767,-0.4919538863224915
1560000115057012992,-0.0019203490810468793,0.37847167709617935,-0.010717383671311365,0.10031082120652282,9.80531790397174,-0.49893530025169647
1560000115067035904,0.00020103955496794668,0.3827245099780896,-0.003314775602096226,0.09155094184920143,9.800265124701614,-0.478130185672776
1560000115077058816,-0.0008596547630394663,0.38910369981328685,-0.0022572601801462006,0.10366764936564468,9.763786713618522,-0.4043775715135835
1560000115087081728,-0.004041737717061705,0.39016692290568145,-0.003314775602096226,0.12230825117695088,9.727307787655926,-0.33724051485796575
1560000115097104640,-0.0029810433990542923,0.3869772833723317,-0.003314775602096226,0.1465431096416861,9.690828420182791,-0.2757763163002569
1560000115107127552,-0.004041737717061705,0.39016692290568145,-0.005429806445996277,0.12527435101311038,9.699999534835412,-0.2373431669763238
1560000115117149952,0.003383122624902535,0.39548294913615223,-0.001199744758196175,0.10926123966921075,9.708034213267297,-0.23387032191623644
1560000115127157248,0.003383122624902535,0.3933565326951971,-0.005429806445996277,0.10926123966921075,9.708034213267297,-0.29523800913472836
1560000115137180160,0.003383122624902535,0.39548294913615223,-0.003314775602096226,0.10031490077830013,9.743944819473388,-0.35670151515451715
1560000115147203328,0.009747288764771711,0.40292539180757814,-0.0022572601801462006,0.09154777136982083,9.7824980952306,-0.4130676168398563
1560000115157225984,0.007625899896932187,0.400798975366623,-0.0022572601801462006,0.10366447888626408,9.758179558766411,-0.43765181517401475
1560000115167248640,0.00020103955496794668,0.4018621984590176,-0.003314775602096226,0.10926123966921075,9.766573556134563,-0.4423937265555294
1560000115177271296,0.0012617339888877088,0.39760936557710735,-0.004372291139611212,0.10926123966921075,9.80304893056359,-0.43010265064718933
1560000115187294720,0.0012617339888877088,0.41249425091995917,-0.003314775602096226,0.12062481643376882,9.748300454779491,-0.38322580080794144
1560000115197317632,-0.0008596547630394663,0.40398861489997273,-0.007544837521026249,0.14092464173577868,9.716245926285243,-0.34235926189567495
1560000115207340288,0.00020103955496794668,0.41036783447900405,-0.006487321983511263,0.17727336870152122,9.740562916412635,-0.3177760042254683
1560000115217363712,0.0023224281909827726,0.4093046411304435,-0.006487321983511263,0.17787896181778462,9.72004251185553,-0.2931899069453657
1560000115227386112,0.004443817058822297,0.41355747401235377,-0.001199744758196175,0.16076673454965357,9.690248426786036,-0.2736728989214994
1560000115237408768,0.006565205463012425,0.41143105757139864,-0.003314775602096226,0.11230033453870299,9.702407586534605,-0.2859648979982229
1560000115247431936,0.004443817058822297,0.417810306894264,-0.005429806445996277,0.10940101571050873,9.708034213267297,-0.31806779848698746
1560000115257454592,0.005504511492742059,0.41887350024282455,-0.007544837521026249,0.14574649384011387,9.708034213267297,-0.3672299480733504
1560000115267477760,0.006565205463012425,0.4209999166837797,-0.004372291139611212,0.1253337020081686,9.764995613153689,-0.43943062190894716
1560000115277500672,0.006565205463012425,0.4252527495656899,-0.003314775602096226,0.125580990780098,9.801223431964239,-0.5007629631243393
1560000115287523584,0.004443817058822297,0.4284423593552056,-0.003314775602096226,0.17404567126544618,9.789064099615878,-0.5376376352801242
1560000115297546496,0.0023224281909827726,0.43269516249328177,-0.003314775602096226,0.19573956179758398,9.785860195516761,-0.5111420697308122
1560000115307569152,0.0023224281909827726,0.4337583558418423,-0.0022572601801462006,0.20125054472159182,9.780889000138671,-0.4586254799346074
1560000115317592064,0.0012617339888877088,0.4337583558418423,-0.004372291139611212,0.16489847197793292,9.74440984955481,-0.38486891850572963
1560000115327614976,0.0023224281909827726,0.4454536611390125,-0.001199744758196175,0.17402722590105427,9.727490951408186,-0.3374784341470827
1560000115337637632,0.00020103955496794668,0.44439043804661793,-0.003314775602096226,0.22249506458861157,9.727490951408186,-0.31289371462347787
1560000115347660800,0.0012617339888877088,0.4497064642770887,-0.006487321983511263,0.20290697824254597,9.70472518516496,-0.3343367739044259
1560000115357683712,0.003383122624902535,0.4475800478361336,-0.005429806445996277,0.16645691872339002,9.704921579331568,-0.3878373403430639
1560000115367706624,0.0012617339888877088,0.4497064642770887,-0.003314775602096226,0.10586886592346788,9.753561661214675,-0.49847451380571695
1560000115377729280,0.005504511492742059,0.4582121300409092,-0.003314775602096226,0.125542759737946,9.775352318964458,-0.554824444046763
1560000115387752192,0.0012617339888877088,0.4582121300409092,-0.005429806445996277,0.16578091983270382,9.789164131194878,-0.5833523338449688
1560000115397775104,-0.0008596547630394663,0.46352815627138,-0.004372291139611212,0.15366295132264435,9.81348459205503,-0.5587655770173321
1560000115407798272,-0.0029810433990542923,0.4592753531333038,-0.012832414746341336,0.14154527377621176,9.78567707410507,-0.48806878588978425
1560000115417820928,-0.0029810433990542923,0.4699074055942454,-0.003314775602096226,0.12942867436357416,9.712723328376454,-0.37744084209063816
1560000115427843840,0.003383122624902535,0.46884421224568484,-0.006487321983511263,0.1513270711893866,9.696655789001362,-0.34732473411831755
1560000115437866752,0.004443817058822297,0.46352815627138,-0.009659868133796379,0.13895837386944948,9.688577475126408,-0.3433691098526664
1560000115447889408,0.004443817058822297,0.4645913793637746,-0.005429806445996277,0.054147215260018575,9.688577475126408,-0.3802429144322703
1560000115457912320,0.004443817058822297,0.46352815627138,-0.008602353058541234,0.06735625745349985,9.715408113704218,-0.4261650918744775
1560000115467935232,0.006565205463012425,0.4784130416142318,-0.009659868133796379,0.11747268385408063,9.746946719234984,-0.4720087809541782
1560000115477958144,0.003383122624902535,0.47097062868663997,-0.007544837521026249,0.17806613691494508,9.746946719234984,-0.49659703833689733
1560000115487980800,0.004443817058822297,0.48053945805518694,-0.004372291139611212,0.1802426002519228,9.753459972323405,-0.49484646031578916
1560000115498003968,0.006565205463012425,0.48266587449614207,-0.004372291139611212,0.13176884779796524,9.765620976046854,-0.4702587147621219
1560000115508026880,0.003383122624902535,0.48053945805518694,-0.003314775602096226,0.16266358822311983,9.777781183024565,-0.49168072706763305
1560000115518049792,0.003383122624902535,0.4858554842856577,-0.005429806445996277,0.17054829413628667,9.785860195516761,-0.5162667782994845
1560000115528072704,0.00020103955496794668,0.48266587449614207,-0.007544837521026249,0.12207784953575229,9.785860195516761,-0.5408528040746466
1560000115538095360,0.005504511492742059,0.4837290678447026,-0.005429806445996277,0.13600121340692306,9.785860195516761,-0.5473538688601245
1560000115548118016,0.004443817058822297,0.48479226119326313,-0.006487321983511263,0.16414334093916097,9.779269597632474,-0.540691185351086
1560000115558141184,-0.0019203490810468793,0.48691867763421826,-0.007544837521026249,0.13990682740825391,9.730626912405043,-0.491516463665696
1560000115568164096,-0.0008596547630394663,0.4943611500494782,-0.003314775602096226,0.08323084597529334,9.708034213267297,-0.42260016112183335
1560000115578187008,-0.0008596547630394663,0.4837290678447026,-0.006487321983511263,-0.0015810705709416173,9.708034213267297,-0.3365605543691751
1560000115588209920,0.0012617339888877088,0.48479226119326313,-0.006487321983511263,0.07226953020731022,9.662537764950459,-0.3309915881717398
1560000115598232832,0.0023224281909827726,0.4911715105161285,-0.005429806445996277,0.08801237159184741,9.64651935864323,-0.3474818932501647
1560000115608255488,0.007625899896932187,0.4922347336085231,-0.006487321983511263,-0.033153631976129194,9.695155997637503,-0.39664987997878576
1560000115618278144,0.008686594330851949,0.4890450940751734,-0.004372291139611212,-0.01168774058129219,9.734902181529112,-0.47304665836356363
1560000115628272896,0.006565205463012425,0.48479226119326313,-0.007544837521026249,0.04781931405463563,9.77133466410521,-0.5506773084300228
1560000115638295808,0.011868676705312442,0.48691867763421826,-0.005429806445996277,0.023585536409538203,9.80781240468142,-0.5752618722306487
1560000115648318208,0.00020103955496794668,0.4773498185218372,-0.0022572601801462006,0.038254527376429294,9.805252350130646,-0.5801144709497971
1560000115658341376,0.0023224281909827726,0.4837290678447026,-0.005429806445996277,0.08673476683110183,9.768765063175247,-0.5678189721072535
1560000115668364288,0.004443817058822297,0.4837290678447026,-0.003314775602096226,0.10120673645974096,9.755029514405809,-0.4980339526378238
1560000115678387200,0.005504511492742059,0.48266587449614207,-0.005429806445996277,0.07675354073049617,9.738791452107487,-0.42839595138144626
1560000115688410112,0.0012617339888877088,0.4816026514037475,-0.006487321983511263,-0.02018156748943728,9.714473160521955,-0.3669345227228795
1560000115698433024,0.0012617339888877088,0.47309701538376103,-0.0022572601801462006,0.007609339240164548,9.708034213267297,-0.3687379007286641
1560000115708455680,0.007625899896932187,0.47947623496279235,-0.001199744758196175,0.0672067486193874,9.712967228754197,-0.3983111487193919
1560000115718478336,0.005504511492742059,0.4752234020808821,-0.005429806445996277,0.04297261071178911,9.749445511613256,-0.4597734910715775
1560000115728501504,0.007625899896932187,0.4752234020808821,-0.0022572601801462006,0.005768325349679807,9.772910827300135,-0.5146598153313526
1560000115738524416,0.003383122624902535,0.46884421224568484,-0.0022572601801462006,-0.04270139039950985,9.785070818598802,-0.5638311550196633
1560000115748547328,0.004443817058822297,0.4645913793637746,-0.003314775602096226,-0.02318688941546764,9.785860195516761,-0.5670231573510556
1560000115758570240,0.00020103955496794668,0.46352815627138,-0.003314775602096226,-0.01112942495476159,9.785860195516761,-0.5464351293737288
1560000115768593408,0.00020103955496794668,0.46352815627138,-0.005429806445996277,-0.023246603187277552,9.785860195516761,-0.48497221954793585
1560000115778616064,0.0012617339888877088,0.46778098915329025,-0.004372291139611212,0.08039822614111886,9.741180319832143,-0.4596429694869923
1560000115788638464,0.0012617339888877088,0.4645913793637746,-0.00014222933624614964,0.19476913054272751,9.693495446846873,-0.44569284540398685
1560000115798661632,0.0012617339888877088,0.4667177958047297,-0.004372291139611212,0.10995267379821849,9.729972428344466,-0.4211087931925215
1560000115808684544,0.0012617339888877088,0.46246496292281947,-0.003314775602096226,0.10287474129956123,9.740446134453359,-0.4293845678120414
1560000115818707456,0.003383122624902535,0.46352815627138,-0.005429806445996277,0.16345828242240923,9.72828747260807,-0.46626086531327904
1560000115828730624,0.0023224281909827726,0.46778098915329025,-0.005429806445996277,0.11081355290394065,9.750215364380098,-0.4801632880269644
1560000115838753280,0.00020103955496794668,0.4656545727123351,-0.004372291139611212,0.07858353370571441,9.750147631250723,-0.4678039490974649
1560000115848775936,0.0023224281909827726,0.4699074055942454,-0.004372291139611212,0.10281421223367149,9.701516659243246,-0.40635037739131313
1560000115858799104,0.006565205463012425,0.4699074055942454,-0.005429806445996277,0.0825824471462761,9.697501642380308,-0.35391285003941353
1560000115868822016,0.005504511492742059,0.4614017398304249,-0.003314775602096226,0.05271650554669673,9.70478047944519,-0.3146115793992838
1560000115878844672,0.006565205463012425,0.4592753531333038,-0.008602353058541234,0.06483436714077062,9.680459629087132,-0.33919812648414427
1560000115888867584,0.009747288764771711,0.4571489366923487,-0.005429806445996277,0.07048396915281341,9.70157337784833,-0.42939889621813726
1560000115898890496,0.013990065573151966,0.45502252025139356,-0.006487321983511263,0.07048396915281341,9.76237001640589,-0.5769063364928987
1560000115908913408,0.008686594330851949,0.46033854648186434,-0.007544837521026249,0.04785760047436642,9.845873908030862,-0.712938880430108
1560000115918936320,0.005504511492742059,0.4560857135999541,-0.003314775602096226,0.04383353108970235,9.902600624362094,-0.8030547112034938
1560000115928959232,-0.0019203490810468793,0.45183288071804384,-0.004372291139611212,0.08019068334296779,9.902600624362094,-0.8030547112034938
1560000115938982144,-0.006163126353076531,0.4614017398304249,-0.009659868133796379,0.06320166553166029,9.84014984293692,-0.6677696484095358
1560000115949005056,-0.007223820786996293,0.4507696873694833,-0.007544837521026249,0.030088166615773477,9.756658247384452,-0.4833859008790049
1560000115959027968,-0.011466598059025945,0.45502252025139356,-0.005429806445996277,0.017970377083412342,9.683696736640137,-0.29898786557752965
1560000115969050880,-0.010405903625106183,0.4507696873694833,-0.0022572601801462006,-0.0006138467376006224,9.630198003580121,-0.16705894010024666
1560000115979073792,-0.0029810433990542923,0.4475800478361336,-0.008602353058541234,-0.02485122748978496,9.593714232963771,-0.08100013386249044
1560000115989096448,0.003383122624902535,0.4412008282571023,-0.007544837521026249,-0.037770929732478586,9.613996686443302,-0.1785698855270337
1560000115999119360,0.006565205463012425,0.43907441181614715,-0.0022572601801462006,-0.04180853534827076,9.662635051871323,-0.31787892219948444
1560000116009142272,0.011868676705312442,0.436947995375192,-0.007544837521026249,-0.02969117934074947,9.759913797460383,-0.514563121132353
1560000116019165184,0.012929372066530997,0.43801118872375255,-0.004372291139611212,-0.04422941244406456,9.812609124854967,-0.657160337617938
1560000116029187584,0.010807983198691473,0.43269516249328177,-0.003314775602096226,-0.06362357115883198,9.84908613426875,-0.76535239582017
1560000116039210752,0.005504511492742059,0.43056874605232665,-0.0022572601801462006,-0.05150657541699049,9.885564806678463,-0.7776448256991109
1560000116049233920,-0.0008596547630394663,0.42737916600664505,-0.004372291139611212,-0.007092482786887733,9.863709133422036,-0.7375163868846497
1560000116059256576,-0.0008596547630394663,0.42631594291425046,-0.005429806445996277,0.06561684760286426,9.790744412748221,-0.6514609084458172
1560000116069279488,-0.006163126353076531,0.41993672333521914,-0.006487321983511263,0.0591796711751764,9.740484745456039,-0.5195530979028536
1560000116079302656,-0.0008596547630394663,0.42737916600664505,-0.004372291139611212,0.05109533295035362,9.691851982205385,-0.4007097965962144
1560000116089325312,-0.0008596547630394663,0.42418952647329533,-0.0022572601801462006,0.05109533295035362,9.643219680991443,-0.3146735058402398
1560000116099347968,0.003383122624902535,0.42206313977617427,-0.006487321983511263,0.033346890118610154,9.630207260703742,-0.31866103964925235
1560000116109370880,0.004443817058822297,0.41993672333521914,-0.001199744758196175,0.01552564171176537,9.639863723506036,-0.3653039499878468
1560000116119393792,0.007625899896932187,0.41143105757139864,-0.0022572601801462006,0.03979116351334938,9.712915377230283,-0.4760794610892445
1560000116129396992,0.005504511492742059,0.41993672333521914,-0.003314775602096226,0.05109533295035362,9.77283163352621,-0.5669366318391044
1560000116139419904,0.009747288764771711,0.41887350024282455,-0.005429806445996277,0.05109533295035362,9.821471715409317,-0.6406947666390143
1560000116149442560,0.003383122624902535,0.4156838904533089,-0.005429806445996277,0.07368514350039641,9.813439253749591,-0.6915340035380275
1560000116159465728,0.007625899896932187,0.4167470838018694,-0.004372291139611212,0.09791997888760175,9.801279882772485,-0.7121317672356041
1560000116169488128,0.00020103955496794668,0.41249425091995917,-0.005429806445996277,0.12215260361385501,9.789120405899054,-0.6752566759458407
1560000116179511296,-0.0008596547630394663,0.4209999166837797,-0.0022572601801462006,0.11978146875424016,9.750262406820129,-0.5843986232073324
1560000116189534208,-0.0008596547630394663,0.4231263331247348,-0.007544837521026249,0.10926123966921075,9.706432148861731,-0.47700900733679946
1560000116199557120,-0.0019203490810468793,0.4252527495656899,-0.005429806445996277,0.10926123966921075,9.694273061382843,-0.3909655539489864
1560000116209580288,0.0023224281909827726,0.4231263331247348,-0.004372291139611212,0.10281940389548855,9.695041938263238,-0.3571959847485013
1560000116219602944,0.0023224281909827726,0.4252527495656899,-0.004372291139611212,0.09070161554344328,9.70720229112744,-0.3694891995549099
1560000116229625856,0.006565205463012425,0.4295055527037661,-0.0022572601801462006,0.11244815009644468,9.73068848895465,-0.40468370286907535
1560000116239648256,0.005504511492742059,0.4348215789342369,-0.00014222933624614964,0.1366805331870663,9.746946719234984,-0.43341152695440194
1560000116249671424,0.007625899896932187,0.4401376051647077,-0.001199744758196175,0.1609148849310734,9.746946719234984,-0.44570410125657745
1560000116259694336,0.008686594330851949,0.43801118872375255,-0.004372291139611212,0.16742714638806788,9.75583820358823,-0.4669846134803844
1560000116269717248,0.004443817058822297,0.4412008282571023,-0.004372291139611212,0.17060357977486074,9.766403457375873,-0.4867347641037208
1560000116279740416,0.006565205463012425,0.44651685448757306,-0.004372291139611212,0.19483901708534565,9.766403457375873,-0.4744416223978915
1560000116289763328,0.004443817058822297,0.4497064642770887,-0.003314775602096226,0.1868982316944408,9.766403457375873,-0.47520521347152067
1560000116299785728,0.0023224281909827726,0.44651685448757306,-0.0022572601801462006,0.15054302420348492,9.766403457375873,-0.48749904971708724
1560000116309808640,0.003383122624902535,0.45502252025139356,-0.006487321983511263,0.10290511421252987,9.766403457375873,-0.48834597273357616
1560000116319831552,-0.0019203490810468793,0.4582121300409092,-0.005429806445996277,0.07048396915281341,9.762376678539358,-0.49648751586058953
1560000116329854720,0.0012617339888877088,0.4582121300409092,-0.004372291139611212,0.07048396915281341,9.750216217201302,-0.5210741456328503
1560000116339877376,-0.0008596547630394663,0.4571489366923487,-0.005429806445996277,0.09706414104385692,9.738055984688065,-0.5007196300347704
1560000116349900544,0.0023224281909827726,0.46033854648186434,-0.005429806445996277,0.12864987776019277,9.724299406540025,-0.45899742072963406
1560000116359923200,-0.0008596547630394663,0.46352815627138,-0.006487321983511263,0.12864987776019277,9.699980725523577,-0.38524436817618113
1560000116369946112,0.0023224281909827726,0.46352815627138,-0.004372291139611212,0.11577773739467627,9.695036151791166,-0.35719013505442215
1560000116379968768,0.0023224281909827726,0.4645913793637746,-0.003314775602096226,0.09154107734962105,9.707197047043989,-0.36948389817549654
1560000116389991936,0.006565205463012425,0.46352815627138,-0.004372291139611212,0.06730316966638887,9.719358568307042,-0.40467440664700577
1560000116400014848,0.005504511492742059,0.4656545727123351,-0.005429806445996277,0.05109533295035362,9.735548138643166,-0.4334107811581525
1560000116410037504,0.005504511492742059,0.46246496292281947,-0.005429806445996277,0.05109533295035362,9.759868382556721,-0.44570404991094775
1560000116420060416,0.0012617339888877088,0.46884421224568484,-0.005429806445996277,0.06882005990542875,9.757509965142006,-0.4490073650979589
1560000116430083328,0.004443817058822297,0.4645913793637746,-0.005429806445996277,0.0898726053552732,9.745348859234758,-0.44577657311972774
1560000116440106240,0.004443817058822297,0.4656545727123351,-0.006487321983511263,0.0898726053552732,9.733188751242448,-0.42118945074955033
1560000116450129152,0.0012617339888877088,0.4667177958047297,-0.008602353058541234,0.07055286219869947,9.727490951408186,-0.4227350535906854
1560000116460152064,0.003383122624902535,0.4656545727123351,-0.003314775602096226,0.03419808836125443,9.727490951408186,-0.4473223952742138
1560000116470174976,0.003383122624902535,0.46352815627138,-0.007544837521026249,0.009134706456667495,9.727490951408186,-0.4490073650979589
1560000116480197632,0.005504511492742059,0.4560857135999541,-0.004372291139611212,-0.0070705737685035075,9.727490951408186,-0.4490073650979589
1560000116490220544,0.006565205463012425,0.46352815627138,-0.003314775602096226,-0.0070705737685035075,9.727490951408186,-0.4490073650979589
1560000116500243456,0.0023224281909827726,0.4582121300409092,-0.005429806445996277,0.0017895322781126908,9.736381735739492,-0.4400190073276614
1560000116510266368,0.006565205463012425,0.46352815627138,-0.004372291139611212,0.018676483860896886,9.746946719234984,-0.42933807660702783
1560000116520289536,0.007625899896932187,0.4592753531333038,-0.004372291139611212,0.06715571393078681,9.746946719234984,-0.42933807660702783
1560000116530312448,0.003383122624902535,0.45502252025139356,-0.005429806445996277,0.07699412107337232,9.746946719234984,-0.42280562584510956
1560000116540335104,0.006565205463012425,0.4592753531333038,-0.005429806445996277,0.05275911851092329,9.746946719234984,-0.41051272262072525
1560000116550357760,0.010807983198691473,0.4560857135999541,-0.003314775602096226,0.05109533295035362,9.75827112625901,-0.4669094124143709
1560000116560380928,0.005504511492742059,0.4497064642770887,-0.006487321983511263,0.03905683355750377,9.77848404116456,-0.5324408145685119
1560000116570403840,0.007625899896932187,0.4486432709285282,-0.004372291139611212,0.002710490841616453,9.814957444058319,-0.6061857548425282
1560000116580426752,0.003383122624902535,0.4475800478361336,-0.003314775602096226,-0.015927247382673246,9.806997581682428,-0.6260310534776039
1560000116590449920,0.003383122624902535,0.4422640216056628,-0.004372291139611212,-0.0296311742155048,9.784268643477702,-0.6163774196231306
1560000116600472576,-0.0029810433990542923,0.4422640216056628,-0.005429806445996277,-0.053867111235623766,9.77210810982267,-0.5426171299815096
1560000116610494976,-0.0019203490810468793,0.43269516249328177,-0.005429806445996277,-0.07166517864057481,9.734147407390267,-0.4688847733367179
1560000116620517888,-0.0019203490810468793,0.43056874605232665,-0.004372291139611212,-0.08377559456022755,9.673383288133017,-0.39517049349409444
1560000116630550272,-0.0019203490810468793,0.4209999166837797,-0.008602353058541234,-0.09590489448147836,9.66912073698552,-0.3442272897853993
1560000116640573440,0.003383122624902535,0.4252527495656899,-0.004372291139611212,-0.12005347912538851,9.673144752739118,-0.3194582530985135
1560000116650596096,0.004443817058822297,0.4093046411304435,-0.006487321983511263,-0.16852780354005506,9.685305901139532,-0.34404626242802266
1560000116660618752,0.0023224281909827726,0.4146206673609143,-0.006487321983511263,-0.15499528553073388,9.7063550380163,-0.39559032975099745
1560000116670641920,0.008686594330851949,0.400798975366623,-0.0022572601801462006,-0.13133817550224341,9.732269070348758,-0.45544789894793763
1560000116680664832,0.005504511492742059,0.39760936557710735,0.0019728016232188617,-0.191928942476416,9.768750607243547,-0.5046221820062838
1560000116690687744,0.00020103955496794668,0.3805980935371345,-0.005429806445996277,-0.20747708901412462,9.785860195516761,-0.5276845803691934
1560000116700710656,0.003383122624902535,0.3742188442142691,-0.004372291139611212,-0.183242358114702,9.785860195516761,-0.5276845803691934
1560000116710733568,0.0023224281909827726,0.3763452606552242,-0.005429806445996277,-0.15900855663911587,9.774540705608578,-0.4933551040275871
1560000116720756480,0.003383122624902535,0.3603971522199778,-0.003314775602096226,-0.13878290176421565,9.758359256448438,-0.45241209238564994
1560000116730779392,0.0023224281909827726,0.3603971522199778,-0.004372291139611212,-0.12666600940098255,9.734040964862906,-0.40324296478439814
1560000116740802048,0.005504511492742059,0.35508112598950703,-0.004372291139611212,-0.09684266962342039,9.718606615904404,-0.38999949962516567
1560000116750824960,0.004443817058822297,0.34763865357424706,-0.001199744758196175,-0.06998196453369343,9.711208902680392,-0.38999949962516567
1560000116760848128,0.003383122624902535,0.3391330175542606,-0.005429806445996277,-0.10633403255625731,9.735528134263213,-0.38999949962516567
1560000116770871040,0.007625899896932187,0.34019621090282115,-0.0022572601801462006,-0.10412039092727912,9.753396626482521,-0.3965198672979435
1560000116780893952,0.006565205463012425,0.3316906046266688,-0.003314775602096226,-0.06776994407617454,9.765556003194918,-0.40881207613039094
1560000116790916352,0.004443817058822297,0.32850096509331905,-0.005429806445996277,-0.042692213781590826,9.766403457375873,-0.40966878811609675
1560000116800939520,0.004443817058822297,0.3178689126323775,-0.0022572601801462006,-0.02245865168258328,9.758374434345617,-0.40561031985878165
1560000116810962176,0.0012617339888877088,0.31574249619142236,-0.003314775602096226,-0.010343130558988698,9.73405889006596,-0.3933194266521675
1560000116820985088,0.004443817058822297,0.31574249619142236,-0.004372291139611212,-0.01591474656026904,9.736365745586571,-0.38102730749446667
1560000116831008000,0.0023224281909827726,0.3061736370790413,-0.003314775602096226,-0.0327495370732942,9.743790588049878,-0.3703302111342346
1560000116841031168,0.0023224281909827726,0.309363246868557,-0.0022572601801462006,-0.08121824528233323,9.719471717994553,-0.3703302111342346
1560000116851054080,0.004443817058822297,0.2976679713152208,-0.005429806445996277,-0.08475828592745305,9.727356996364401,-0.38335300767679853
1560000116861076480,0.003383122624902535,0.3019208041971311,-0.004372291139611212,-0.04840826690571524,9.763834086047037,-0.40793713280073246
1560000116871099648,0.0023224281909827726,0.2934151384333106,-0.001199744758196175,-0.07963903390413216,9.755100165025754,-0.42109556050322133
1560000116881122560,-0.0019203490810468793,0.2891623352952344,-0.006487321983511263,-0.08804630541889695,9.746946719234984,-0.42123878582066254
1560000116891145216,0.0023224281909827726,0.27959347618285335,-0.004372291139611212,-0.0395813439990067,9.746946719234984,-0.3966555377284443
1560000116901168384,0.0012617339888877088,0.2838463090647636,-0.001199744758196175,-0.017622533152343436,9.755814435617808,-0.37207030651572487
1560000116911191552,-0.0029810433990542923,0.2785302828342928,-0.003314775602096226,-0.005505337972222702,9.763262068133216,-0.3506608919895484
1560000116921214208,0.00020103955496794668,0.2774670597418982,-0.0022572601801462006,0.006610180791182285,9.738946523853558,-0.3506608919895484
1560000116931236864,0.0012617339888877088,0.2817198926238085,-0.004372291139611212,0.018725985932142863,9.727490951408186,-0.3506608919895484
1560000116941259776,0.004443817058822297,0.2700246170704723,-0.00014222933624614964,0.030842622609929864,9.727490951408186,-0.3506608919895484
1560000116951282688,0.003383122624902535,0.26683500728095666,-0.007544837521026249,-0.013306414233911469,9.727490951408186,-0.36207708003277583
1560000116961305600,0.0023224281909827726,0.2678982006295172,-0.0022572601801462006,-0.03788382247238595,9.735482749195233,-0.3784095148092625
1560000116971328512,0.0023224281909827726,0.26577178418856207,-0.004372291139611212,-0.013649324291575227,9.759801763829307,-0.4029948095754223
1560000116981351168,0.0023224281909827726,0.2604557579580913,-0.001199744758196175,-0.024723907864991946,9.757545786953818,-0.4007143542522397
1560000116991374336,0.003383122624902535,0.2593925348656967,-0.003314775602096226,-0.04584784617342308,9.746946719234984,-0.38999949962516567
1560000117001396992,-0.0008596547630394663,0.2583293712609702,-0.001199744758196175,-0.04584784617342308,9.746946719234984,-0.38999949962516567
1560000117011420160,-0.0008596547630394663,0.25088689884571025,-0.001199744758196175,-0.039450677598670617,9.740527400343101,-0.3770199518929056
1560000117021443072,0.0023224281909827726,0.24876048240475512,-0.00014222933624614964,-0.027335050725038196,9.728369822882367,-0.3524379269743814
1560000117031465728,-0.0008596547630394663,0.24131803973332921,-0.00014222933624614964,-0.04893821147625998,9.704932992857268,-0.33925868939436865
1560000117041488384,0.00020103955496794668,0.23387561193382034,-0.003314775602096226,-0.06127015840527111,9.696537983214197,-0.33903906827831826
1560000117051511552,0.0023224281909827726,0.23600202837477546,-0.003314775602096226,-0.0491538831305259,9.720855652158438,-0.36362241834956943
1560000117061534464,0.00020103955496794668,0.23068598727238765,-0.0022572601801462006,-0.04584784617342308,9.736331406136376,-0.37926768695054697
1560000117071557376,0.004443817058822297,0.22218033638048418,-0.003314775602096226,-0.0427732858528261,9.748489399040608,-0.3915590320568722
1560000117081580288,0.0012617339888877088,0.21686429527809636,-0.004372291139611212,-0.01854109314980831,9.760648052776716,-0.40385051001505434
1560000117091603200,0.005504511492742059,0.21686429527809636,-0.004372291139611212,-0.0134515022462239,9.766403457375873,-0.4226153728611755
1560000117101626112,0.0012617339888877088,0.21792750349857393,-0.001199744758196175,-0.025568032002531212,9.766403457375873,-0.4471992057397321
1560000117111648768,0.004443817058822297,0.20516903459667724,-0.004372291139611212,-0.02645921185948552,9.766403457375873,-0.437604395277512
1560000117121671680,-0.0019203490810468793,0.20197942480716158,-0.0022572601801462006,-0.01850167774199634,9.762410715030448,-0.42126535645286534
1560000117131671808,0.0012617339888877088,0.20410582637619967,-0.003314775602096226,0.005674101703459708,9.750280366997965,-0.39673963038114357
1560000117141694464,0.0023224281909827726,0.19985300836620645,-0.0022572601801462006,-0.005268462804198071,9.73812301158484,-0.381078954680583
1560000117151717120,0.00020103955496794668,0.1987898001457289,-0.003314775602096226,-0.02493902041829264,9.727490951408186,-0.36878801252917887
1560000117161740544,-0.0019203490810468793,0.19666338370477376,-0.0022572601801462006,-0.012821013520456101,9.727490951408186,-0.35649457840799026
1560000117171763200,0.0023224281909827726,0.19666338370477376,0.0009152860857038758,-0.013437086890147266,9.727490951408186,-0.34420221860248257
1560000117181786112,0.0012617339888877088,0.1892209559052649,0.0019728016232188617,-0.025554157024192087,9.727490951408186,-0.33190974438485943
1560000117191809280,0.0012617339888877088,0.1956001754842962,-0.001199744758196175,-0.015246741640664713,9.727490951408186,-0.3537411560550842
1560000117201831936,0.005504511492742059,0.19028416412574245,0.0009152860857038758,-0.003129897542955635,9.731445272299664,-0.3783256476641748
1560000117211854336,0.007625899896932187,0.1860313312438322,-0.00014222933624614964,0.008986701869681979,9.743603825666836,-0.4029096266610756
1560000117221877504,0.004443817058822297,0.18496812302335464,-0.00014222933624614964,0.02110413982357426,9.746946719234984,-0.42749530528020824
1560000117231900416,0.004443817058822297,0.18709453946430976,0.0019728016232188617,0.03625111104045235,9.749986970165846,-0.4505440968001317
1560000117241923328,0.0012617339888877088,0.18815774768478732,-0.001199744758196175,0.07260556060179728,9.774308399068325,-0.4628376579852204
1560000117251946240,0.0023224281909827726,0.18390491480287707,0.004087832467118913,0.09623412720833364,9.773092461300065,-0.46222304749455767
1560000117261969408,0.003383122624902535,0.18177849836192195,-0.003314775602096226,0.10835076270591708,9.748774069379536,-0.44993102138882496
1560000117271992064,0.0023224281909827726,0.1892209559052649,0.0019728016232188617,0.10926123966921075,9.746946719234984,-0.42627044306371004
1560000117282014720,-0.0008596547630394663,0.1860313312438322,0.0019728016232188617,0.1053268460083481,9.742998702661689,-0.4016860985981694
1560000117292037376,-0.0019203490810468793,0.1860313312438322,-0.001199744758196175,0.09320977823479464,9.730839679311893,-0.3771011693202099
1560000117302060544,-0.0008596547630394663,0.1860313312438322,-0.001199744758196175,0.08109242137205215,9.727490951408186,-0.36142291930041665
1560000117312083456,0.004443817058822297,0.18177849836192195,-0.001199744758196175,0.07199249618353504,9.727490951408186,-0.3521912574724948
1560000117322106368,0.0023224281909827726,0.19028416412574245,0.0009152860857038758,0.0841088446444648,9.727490951408186,-0.36448301034555247
1560000117332129536,-0.0008596547630394663,0.18390491480287707,-0.004372291139611212,0.09622538626780458,9.733865728944728,-0.3832196883882809
1560000117342152192,0.0012617339888877088,0.18815774768478732,-0.00014222933624614964,0.10834126522620194,9.746023559363074,-0.4078022056192763
1560000117352175104,0.003383122624902535,0.19453696726381864,-0.001199744758196175,0.09806404826205807,9.758183241498225,-0.4210280610029519
1560000117362198016,0.004443817058822297,0.19347375904334108,0.0030303169296039267,0.09772467587168406,9.762463632049679,-0.42535521162813816
1560000117372220672,0.004443817058822297,0.1956001754842962,0.0009152860857038758,0.12195823731129053,9.750304291541456,-0.4130630393953678
1560000117382243584,0.005504511492742059,0.20516903459667724,-0.00014222933624614964,0.13742138643197502,9.746946719234984,-0.4185672660476737
1560000117392266496,0.0023224281909827726,0.20516903459667724,0.0019728016232188617,0.15103898424286072,9.746946719234984,-0.42933807660702783
1560000117402289664,0.0023224281909827726,0.21048507569906505,-0.006487321983511263,0.17527334542891745,9.746946719234984,-0.42933807660702783
1560000117412312576,0.00020103955496794668,0.21473789370905827,-0.001199744758196175,0.18681579581018326,9.746946719234984,-0.41646169786105797
1560000117422335488,0.0012617339888877088,0.2136746854885807,-0.001199744758196175,0.18681579581018326,9.746946719234984,-0.39187457549088056
1560000117432358144,0.00020103955496794668,0.21792750349857393,-0.00014222933624614964,0.18681579581018326,9.746946719234984,-0.40135484757682444
1560000117442381056,0.003383122624902535,0.22111712816000662,-0.0022572601801462006,0.17504961903579172,9.746946719234984,-0.40568995767432675
1560000117452403968,0.0023224281909827726,0.21792750349857393,-0.00014222933624614964,0.13869786586325955,9.746946719234984,-0.39339731029124686
1560000117462426880,0.003383122624902535,0.22855958570334955,-0.00014222933624614964,0.14618675942281553,9.746946719234984,-0.3988948653086962
1560000117472449792,-0.0008596547630394663,0.2296227790519101,-0.003314775602096226,0.16443177446480145,9.745443847507394,-0.40814942286472344
1560000117482472704,-0.0008596547630394663,0.23281240371334277,0.0019728016232188617,0.1401972786445172,9.733284643397283,-0.39585677548164355
1560000117492495360,0.0012617339888877088,0.23387561193382034,-0.00014222933624614964,0.1349933255977704,9.727490951408186,-0.383564229171135
1560000117502518528,0.0023224281909827726,0.237065221723336,-0.0022572601801462006,0.14711151029080458,9.727490951408186,-0.3712706314450522
1560000117512541184,0.00020103955496794668,0.2445076643947619,-0.003314775602096226,0.18160747469040986,9.727490951408186,-0.3703302111342346
1560000117522564096,0.00020103955496794668,0.25088689884571025,-0.003314775602096226,0.20228628502919843,9.731422657106176,-0.37827992088855267
1560000117532587008,0.00020103955496794668,0.2476972890561946,-0.0022572601801462006,0.19016868155100392,9.743582222753043,-0.4028659466637148
1560000117542609920,-0.0008596547630394663,0.25407653837905997,-0.0022572601801462006,0.2043441889209259,9.746946719234984,-0.40966878811609675
1560000117552632832,-0.0019203490810468793,0.2625821743990464,-0.003314775602096226,0.2226081882686935,9.746946719234984,-0.40966878811609675
1560000117562655744,0.0023224281909827726,0.26577178418856207,-0.003314775602096226,0.19837478267749167,9.746946719234984,-0.40966878811609675
1560000117572678912,0.0023224281909827726,0.2710878401628669,0.0009152860857038758,0.17414229796116604,9.740588031674962,-0.40966878811609675
1560000117582701568,0.0012617339888877088,0.2753406433009431,-0.0022572601801462006,0.14991175511621263,9.728430815632766,-0.40966878811609675
1560000117592723968,0.003383122624902535,0.273214226859988,-0.005429806445996277,0.14803851207413032,9.727490951408186,-0.40966878811609675
1560000117602746880,-0.0008596547630394663,0.2753406433009431,-0.00014222933624614964,0.14803851207413032,9.731411085156635,-0.413631944045367
1560000117612770048,0.005504511492742059,0.2849095321571582,-0.004372291139611212,0.14803851207413032,9.743570036225309,-0.425924335609962
1560000117622792960,0.003383122624902535,0.290225558387629,-0.004372291139611212,0.14803851207413032,9.746946719234984,-0.42933807660702783
1560000117632804608,0.003383122624902535,0.29660474822282623,0.0009152860857038758,0.14655882886911553,9.746946719234984,-0.4218325635908135
1560000117642827776,0.0012617339888877088,0.29660474822282623,-0.003314775602096226,0.13444237348562857,9.746946719234984,-0.360373317934084
1560000117652850432,0.0012617339888877088,0.2976679713152208,-0.003314775602096226,0.12864987776019277,9.740601441168032,-0.3181617523521752
1560000117662873344,0.0023224281909827726,0.30511041398664673,-0.0022572601801462006,0.12864987776019277,9.728443321539201,-0.29357864077429574
1560000117672896256,0.003383122624902535,0.309363246868557,-0.0022572601801462006,0.15098304833255471,9.727490951408186,-0.2576683158263736
1560000117682919168,0.004443817058822297,0.30723683042760186,-0.005429806445996277,0.1557452002034399,9.727490951408186,-0.24054581093837485
1560000117692942080,0.006565205463012425,0.31255285665807264,-0.003314775602096226,0.11939723664370516,9.727490951408186,-0.2651285475153151
1560000117702964992,0.006565205463012425,0.3168056895399829,-0.004372291139611212,0.13547437521386474,9.745027320234058,-0.298576279810502
1560000117712987904,0.005504511492742059,0.309363246868557,-0.006487321983511263,0.15863417319846138,9.767874100459432,-0.33396500917158056
1560000117723010816,0.008686594330851949,0.31255285665807264,-0.0022572601801462006,0.08594040723624556,9.780032284252888,-0.35854704366760903
1560000117733033728,0.008686594330851949,0.31467927309902777,-0.0022572601801462006,0.044787029928347176,9.785860195516761,-0.36393058487349267
1560000117743056640,0.004443817058822297,0.30723683042760186,-0.001199744758196175,0.03267104168172212,9.785860195516761,-0.3516391974294444
1560000117753079552,0.003383122624902535,0.31255285665807264,-0.004372291139611212,0.009402834791960864,9.763477990899053,-0.3393475264205046
1560000117763102208,0.0012617339888877088,0.3040472206380862,-0.004372291139611212,-0.0031911174504884094,9.739160747067897,-0.31918474547543096
1560000117773124864,0.0023224281909827726,0.3040472206380862,-0.005429806445996277,0.008926022359060495,9.71484194938902,-0.28230711316490037
1560000117783148032,-0.0019203490810468793,0.3029839975456916,-0.005429806445996277,0.01231806054543405,9.708034213267297,-0.2631318396799926
1560000117793170944,0.005504511492742059,0.29873116466378136,-0.001199744758196175,0.009409606576939941,9.708034213267297,-0.2567402370133454
1560000117803193856,0.006565205463012425,0.29660474822282623,-0.0022572601801462006,-0.014825972487782325,9.708034213267297,-0.29361984311571915
1560000117813216768,0.009747288764771711,0.29979438775617595,-0.001199744758196175,-0.02645921185948552,9.727002959382919,-0.3304985989162603
1560000117823239680,0.008686594330851949,0.290225558387629,-0.00014222933624614964,-0.02645921185948552,9.763482652278654,-0.3673774470342103
1560000117833262592,0.007625899896932187,0.28703591885427926,-0.003314775602096226,-0.059901328723592356,9.766403457375873,-0.40425640020163073
1560000117843284992,0.008686594330851949,0.2774670597418982,-0.0022572601801462006,-0.09237677570026516,9.77029289586423,-0.43327000430946544
1560000117853308416,0.004443817058822297,0.2710878401628669,-0.003314775602096226,-0.11661349596581373,9.782453827255651,-0.44556378480464454
1560000117863331072,0.004443817058822297,0.27215103351142744,-0.005429806445996277,-0.12340238342917331,9.777106890583815,-0.41361165205942196
1560000117873353984,0.00020103955496794668,0.26470859084000153,-0.003314775602096226,-0.12340238342917331,9.763490818674171,-0.3644411454870277
1560000117883376896,-0.004041737717061705,0.2562029548200151,-0.001199744758196175,-0.12340238342917331,9.739172165569743,-0.3152712486165351
1560000117893400064,-0.0008596547630394663,0.25088689884571025,-0.00014222933624614964,-0.09821419344855317,9.721171785128078,-0.2852647924273234
1560000117903422720,0.005504511492742059,0.24238124795380678,-0.004372291139611212,-0.04974707529021062,9.709012444619855,-0.27297261061613753
1560000117913445376,0.0012617339888877088,0.24238124795380678,-0.001199744758196175,-0.03470691065987593,9.708034213267297,-0.28328590353066196
1560000117923468544,0.0023224281909827726,0.24344445617428434,-0.001199744758196175,-0.018722433553223918,9.711916190008393,-0.3034261553024479
1560000117933491456,0.0012617339888877088,0.237065221723336,-0.0022572601801462006,0.005509903148976307,9.724074915996988,-0.3403008274582328
1560000117943514112,0.006565205463012425,0.237065221723336,0.0019728016232188617,0.02974321757845971,9.753720058857267,-0.39485437521506983
1560000117953537280,0.006565205463012425,0.2317491954928652,0.0009152860857038758,0.04965419609876625,9.787306466435927,-0.4563173568537716
1560000117963559936,0.0023224281909827726,0.227496377482872,-0.001199744758196175,0.03754011672123579,9.799463702368724,-0.5177645541004932
1560000117973582848,-0.0019203490810468793,0.2243067528214393,-0.001199744758196175,0.04427139309733155,9.80531790397174,-0.5346072973778722
1560000117983605504,0.003383122624902535,0.22005391993952905,-0.001199744758196175,0.06850553100492984,9.80531790397174,-0.5100223680999126
1560000117993628928,0.00020103955496794668,0.2243067528214393,-0.003314775602096226,0.048230093918234365,9.78298530588892,-0.45157525139200494
1560000118003651584,0.00020103955496794668,0.22643316926239443,-0.005429806445996277,0.04326983031895047,9.754799901577838,-0.4057586177858523
1560000118013674496,-0.0008596547630394663,0.22536996104191687,-0.001199744758196175,0.07962482038653329,9.718317822287318,-0.39346487382405854
1560000118023697664,0.0023224281909827726,0.22536996104191687,-0.0022572601801462006,0.08117082101893798,9.699301864203514,-0.372343998941037
1560000118033720320,-0.005102432150981467,0.22218033638048418,-0.001199744758196175,0.06905416783281276,9.690012298575889,-0.3535618899007505
1560000118043743232,0.005504511492742059,0.22111712816000662,-0.003314775602096226,0.05693817958618772,9.7021708438274,-0.37814464563326894
1560000118053765888,0.004443817058822297,0.22324354460096174,-0.001199744758196175,0.05109533295035362,9.72692080507616,-0.42182156142854865
1560000118063788800,0.006565205463012425,0.22324354460096174,-0.00014222933624614964,0.05109533295035362,9.763401040299895,-0.4832871933244466
1560000118073811712,0.005504511492742059,0.21792750349857393,0.0009152860857038758,0.07333423039359482,9.77756196279051,-0.5221872016007528
1560000118083834624,0.00020103955496794668,0.22111712816000662,0.0019728016232188617,0.09756753339649916,9.785860195516761,-0.5473538688601245
1560000118093857536,0.00020103955496794668,0.22324354460096174,0.0009152860857038758,0.12180059054872772,9.785860195516761,-0.5473538688601245
1560000118103880704,-0.0019203490810468793,0.22111712816000662,-0.003314775602096226,0.11995770372202069,9.777137491356617,-0.5208998755290044
1560000118113903616,-0.005102432150981467,0.2296227790519101,-0.003314775602096226,0.11068860451806274,9.764971079095083,-0.482553866696904
1560000118123926272,-0.005102432150981467,0.22643316926239443,-0.001199744758196175,0.12286712359986506,9.752749784561319,-0.43313463520317064
1560000118133867776,-0.0019203490810468793,0.2296227790519101,-0.003314775602096226,0.12864987776019277,9.734372708290572,-0.38424539405359415
1560000118143890688,-0.0019203490810468793,0.22005391993952905,-0.005429806445996277,0.12864987776019277,9.710054778213188,-0.3350769686502015
1560000118153913600,-0.0029810433990542923,0.237065221723336,-0.0022572601801462006,0.10643066380291505,9.708034213267297,-0.31972116861247313
1560000118163936512,0.0012617339888877088,0.237065221723336,-0.001199744758196175,0.0898726053552732,9.711885586447595,-0.31521574624009197
1560000118173959168,0.00020103955496794668,0.23068598727238765,-0.001199744758196175,0.0898726053552732,9.72404510772085,-0.3275081012126154
1560000118183982080,0.0012617339888877088,0.237065221723336,-0.00014222933624614964,0.0898726053552732,9.744917155192617,-0.3486086201077615
1560000118194004736,0.003383122624902535,0.23600202837477546,-0.003314775602096226,0.0898726053552732,9.764988195739978,-0.3731916557612824
1560000118204027904,0.0012617339888877088,0.24131803973332921,-0.003314775602096226,0.0898726053552732,9.752828457507194,-0.39777680436563345
1560000118214050816,0.003383122624902535,0.23919163816429112,-0.001199744758196175,0.09612834239442555,9.753224429953452,-0.40966878811609675
1560000118224073728,0.00020103955496794668,0.24025484638476868,-0.001199744758196175,0.10824523003674613,9.765383878944128,-0.40966878811609675
1560000118234096640,-0.0008596547630394663,0.24344445617428434,0.0019728016232188617,0.12036191300652062,9.766403457375873,-0.40966878811609675
1560000118244119552,0.00020103955496794668,0.237065221723336,-0.004372291139611212,0.12864987776019277,9.762561511565389,-0.39801703345571915
1560000118254142464,0.003383122624902535,0.24557087261523947,-0.003314775602096226,0.12864987776019277,9.750402243333294,-0.36114071679776427
1560000118264164864,0.0012617339888877088,0.24025484638476868,-0.0022572601801462006,0.11997768950996386,9.729541856889501,-0.3418631670199787
1560000118274188288,-0.0008596547630394663,0.24663408083571703,-0.0022572601801462006,0.10786108231318649,9.708034213267297,-0.32815073726368343
1560000118284210944,0.00020103955496794668,0.24663408083571703,-0.004372291139611212,0.09574502324926136,9.708034213267297,-0.3035678450296629
1560000118294233856,0.0012617339888877088,0.24131803973332921,-0.003314775602096226,0.0898726053552732,9.714300354301432,-0.29798759474967734
1560000118304257024,0.0012617339888877088,0.24982370549714972,-0.0022572601801462006,0.0898726053552732,9.726460092534216,-0.3102801786305817
1560000118314279680,-0.0029810433990542923,0.2476972890561946,-0.0022572601801462006,0.0898726053552732,9.738618490275396,-0.3338216283525805
1560000118324302336,0.0012617339888877088,0.25195012193810484,-0.004372291139611212,0.0898726053552732,9.750776806295319,-0.35840475383246034
1560000118334325504,0.003383122624902535,0.25195012193810484,-0.0022572601801462006,0.0898726053552732,9.762936363765222,-0.3829895561188233
1560000118344348416,0.0012617339888877088,0.25088689884571025,-0.006487321983511263,0.09853422626210316,9.766403457375873,-0.4163604981860157
1560000118354371328,0.00020103955496794668,0.24982370549714972,-0.003314775602096226,0.11065075392871164,9.767797852122078,-0.4490073650979589
1560000118364393984,0.003383122624902535,0.2604557579580913,-0.004372291139611212,0.12276699546384917,9.779956650367458,-0.4490073650979589
1560000118374417152,0.003383122624902535,0.2562029548200151,0.0019728016232188617,0.12241594207905927,9.773348532390575,-0.4363590213854467
1560000118384440064,0.00020103955496794668,0.2572661481685756,-0.0022572601801462006,0.11029912410158219,9.749029778965781,-0.4117746037205517
1560000118394462464,0.003383122624902535,0.2572661481685756,-0.00014222933624614964,0.12033914387258196,9.735830459744404,-0.3759540002354348
1560000118404485632,0.0012617339888877088,0.2572661481685756,-0.00014222933624614964,0.12864987776019277,9.723671679698972,-0.3390779027616334
1560000118414508544,-0.0019203490810468793,0.26364536774760694,-0.001199744758196175,0.12864987776019277,9.711512772967918,-0.3022026824547558
1560000118424531456,0.0023224281909827726,0.2604557579580913,-0.005429806445996277,0.1459508334451466,9.708034213267297,-0.30042869785922516
1560000118434554368,-0.0008596547630394663,0.26364536774760694,0.0009152860857038758,0.1646693647814235,9.709417947513387,-0.31551885448239625
1560000118444577536,0.0012617339888877088,0.26470859084000153,-0.003314775602096226,0.1404350130374164,9.721577685746173,-0.3523966061251093
1560000118454599936,0.005504511492742059,0.2689614237219118,-0.0022572601801462006,0.12864987776019277,9.739982221014825,-0.4019003168625873
1560000118464622848,0.008686594330851949,0.27215103351142744,-0.0022572601801462006,0.12864987776019277,9.76430181413589,-0.46336501583076906
1560000118474645760,0.005504511492742059,0.273214226859988,-0.001199744758196175,0.1507887179403945,9.766403457375873,-0.5023656447576774
1560000118484668672,0.0023224281909827726,0.26577178418856207,-0.001199744758196175,0.16363017187879075,9.76259314574905,-0.5238326439302253
1560000118494691584,0.003383122624902535,0.2785302828342928,-0.004372291139611212,0.15151472509355352,9.750435142676558,-0.5115418237436766
1560000118504714496,0.003383122624902535,0.27427744995238257,-0.004372291139611212,0.173956987249319,9.738277314232398,-0.47295706905539175
1560000118514737664,-0.0008596547630394663,0.273214226859988,-0.007544837521026249,0.20757143445809603,9.72611913726833,-0.42656447623502547
1560000118524760320,0.004443817058822297,0.2838463090647636,-0.004372291139611212,0.21968748880143146,9.713960519766484,-0.4019815935788508
1560000118534783232,0.0012617339888877088,0.27959347618285335,-0.0022572601801462006,0.23180420552257686,9.701801242416835,-0.3836984382177731
1560000118544806144,0.0023224281909827726,0.2923519748285841,-0.007544837521026249,0.24392156625119316,9.689641323415795,-0.37140568117258393
1560000118554829056,0.005504511492742059,0.2923519748285841,-0.006487321983511263,0.2781525252254879,9.699673256591653,-0.3927642003354955
1560000118564851968,0.005504511492742059,0.3029839975456916,-0.004372291139611212,0.2955774109920325,9.71563080532452,-0.425028335410385
1560000118574875136,0.011868676705312442,0.309363246868557,-0.008602353058541234,0.27134450022505857,9.739948229377346,-0.4741957281045049
1560000118584897536,0.007625899896932187,0.31574249619142236,-0.010717383671311365,0.2643703330659335,9.75560579202318,-0.5058533197737889
1560000118594920704,0.006565205463012425,0.32212174551428774,-0.010717383671311365,0.2602993764949829,9.767765209221732,-0.5276845803691934
1560000118604943360,0.003383122624902535,0.32850096509331905,-0.008602353058541234,0.22394957353626982,9.7799243689703,-0.5276845803691934
1560000118614966272,0.004443817058822297,0.34019621090282115,-0.006487321983511263,0.2123744434316135,9.792052200168396,-0.5214252448409634
1560000118624989184,0.005504511492742059,0.3497650700152022,-0.006487321983511263,0.2244286077126818,9.80414931344798,-0.5091965894700525
1560000118635095552,0.0023224281909827726,0.3518914864561573,-0.006487321983511263,0.21454595057040027,9.794231444389133,-0.46318720900329946
1560000118645118720,0.005504511492742059,0.3582707357790227,-0.009659868133796379,0.2137556883173119,9.774493699388282,-0.4063563523784942
1560000118655141632,0.0012617339888877088,0.36146034556853834,-0.006487321983511263,0.23799018413759618,9.738014874230247,-0.33260043934365746
1560000118665164544,0.0012617339888877088,0.36358676200949347,-0.009659868133796379,0.24498169119790703,9.718839302092293,-0.29382996178869303
1560000118675187712,0.003383122624902535,0.37528203756282963,-0.006487321983511263,0.2422812745188067,9.709389164300614,-0.27746270669765527
1560000118685210368,0.003383122624902535,0.37528203756282963,-0.007544837521026249,0.21804497717194535,9.721549878751853,-0.32663698017650367
1560000118695233280,0.004443817058822297,0.381661286885695,-0.009659868133796379,0.21859924391763608,9.739929000211612,-0.35694802116223445
1560000118705255936,0.006565205463012425,0.39016692290568145,-0.007544837521026249,0.24283316326141474,9.764247436358694,-0.36924039529187375
1560000118715279104,0.006565205463012425,0.3869772833723317,-0.010717383671311365,0.1787220538143976,9.755321394990837,-0.33672080799572324
1560000118725302016,0.0012617339888877088,0.39548294913615223,-0.010717383671311365,0.12864987776019277,9.746946719234984,-0.30366921086017856
1560000118735324672,0.004443817058822297,0.4018621984590176,-0.007544837521026249,0.12864987776019277,9.746946719234984,-0.27908411626735796
1560000118745347840,0.004443817058822297,0.40505180824853326,-0.009659868133796379,0.08556610094399195,9.746946719234984,-0.2545007246692967
1560000118755370496,0.0023224281909827726,0.408241447781883,-0.01177489920882635,0.033050523546815494,9.748295266180746,-0.23946151126378734
1560000118765393152,0.0012617339888877088,0.40505180824853326,-0.01177489920882635,0.04516802482804001,9.760455329781339,-0.3009260465436791
1560000118775416320,0.003383122624902535,0.40505180824853326,-0.008602353058541234,0.08204641975172353,9.778827687995317,-0.36239071008710466
1560000118785439232,0.005504511492742059,0.40505180824853326,-0.007544837521026249,0.14262996205478212,9.803146830846314,-0.42385123465757657
1560000118795462144,0.0023224281909827726,0.41143105757139864,-0.009659868133796379,0.1590740018214531,9.794243099079115,-0.40694761547766717
1560000118805485056,0.0012617339888877088,0.41355747401235377,-0.01177489920882635,0.1561344998633064,9.778305320891944,-0.37472467870946996
1560000118815507968,0.0012617339888877088,0.41036783447900405,-0.006487321983511263,0.11978167290454639,9.75398497673445,-0.32555259842193396
1560000118825530880,-0.0029810433990542923,0.40505180824853326,-0.007544837521026249,0.1006504423205509,9.746946719234984,-0.3113222996808087
1560000118835553280,0.0023224281909827726,0.41036783447900405,-0.006487321983511263,0.09389099483750807,9.746946719234984,-0.31404000485376216
1560000118845576448,-0.0019203490810468793,0.41036783447900405,-0.008602353058541234,0.13024414608200008,9.746946719234984,-0.33862625952795256
1560000118855599616,0.003383122624902535,0.41249425091995917,-0.009659868133796379,0.10473403522605587,9.759362885801936,-0.3506608919895484
1560000118865622272,0.0023224281909827726,0.4093046411304435,-0.009659868133796379,0.019912788476482035,9.783682651440813,-0.3506608919895484
1560000118875645184,-0.0019203490810468793,0.4156838904533089,-0.009659868133796379,0.0012857414188922611,9.785860195516761,-0.33946886921984865
1560000118885668352,-0.0008596547630394663,0.41143105757139864,-0.010717383671311365,-0.022115684941974856,9.774536917937443,-0.3195444159937077
1560000118895691008,-0.0008596547630394663,0.41993672333521914,-0.006487321983511263,-0.07058425598269741,9.738058418214909,-0.2826667836831771
1560000118905713920,-0.004041737717061705,0.408241447781883,-0.007544837521026249,-0.05019410311195403,9.727490951408186,-0.22832190757514162
1560000118915736832,-0.0019203490810468793,0.40398861489997273,-0.009659868133796379,-0.0070705737685035075,9.724807502800681,-0.16821168206747666
1560000118925759744,-0.0029810433990542923,0.4093046411304435,-0.007544837521026249,-0.0070705737685035075,9.700484627421023,-0.11903448881922712
1560000118935782400,0.0012617339888877088,0.40398861489997273,-0.004372291139611212,-0.0070705737685035075,9.682370087460413,-0.08868481719056871
1560000118945805312,0.003383122624902535,0.40611503134092786,-0.004372291139611212,-0.0070705737685035075,9.670209011400631,-0.0763908844592706
1560000118955828480,0.0012617339888877088,0.3997357820180625,-0.003314775602096226,0.014998091552519067,9.713412548468666,-0.14245508964397446
1560000118965851136,0.007625899896932187,0.40292539180757814,-0.008602353058541234,0.039235542038466846,9.7545020093437,-0.2238578263752793
1560000118975874048,0.007625899896932187,0.400798975366623,-0.005429806445996277,0.06347580604784103,9.778827416472469,-0.32222245050308657
1560000118985896960,0.004443817058822297,0.39016692290568145,-0.006487321983511263,0.06186891144322802,9.80315039999714,-0.3768801899918979
1560000118995919872,0.004443817058822297,0.39229333934663657,-0.004372291139611212,0.053784796023589966,9.823423381218666,-0.40830459146706993
1560000119005942784,0.00020103955496794668,0.3997357820180625,-0.005429806445996277,0.07802109573115325,9.811263879685285,-0.3960110302819812
1560000119015965440,-0.0019203490810468793,0.3880405064647263,-0.003314775602096226,0.058915293843739516,9.792891174660243,-0.3523129686947764
1560000119025988608,0.0012617339888877088,0.39548294913615223,-0.006487321983511263,-0.0016705902373030657,9.768571091784429,-0.27855747498807903
1560000119036011520,-0.004041737717061705,0.38378770332665013,-0.004372291139611212,0.003966645408336158,9.744252033498807,-0.21599874509256084
1560000119046034432,-0.004041737717061705,0.39016692290568145,-0.005429806445996277,0.001018545701976882,9.719931481820929,-0.15835310152298987
1560000119056057088,-0.0019203490810468793,0.38910369981328685,-0.001199744758196175,-0.0353396865601047,9.695607521470471,-0.10917371462708003
1560000119066080256,0.00020103955496794668,0.3763452606552242,-0.007544837521026249,-0.03723214862876927,9.688577475126408,-0.10370043465784921
1560000119076102912,0.004443817058822297,0.37740845400378475,-0.005429806445996277,-0.018390992797362712,9.691276327930629,-0.12281432898680225
1560000119086125824,0.005504511492742059,0.3742188442142691,-0.005429806445996277,0.054331961995214645,9.715602458513095,-0.19658999714273862
1560000119096148992,0.003383122624902535,0.37740845400378475,-0.003314775602096226,0.06508914108482403,9.739925899014267,-0.25778733204942467
1560000119106171904,0.003383122624902535,0.3763452606552242,-0.004372291139611212,0.016618703566079557,9.76424563673988,-0.3069594027578901
1560000119116194560,0.006565205463012425,0.37528203756282963,-0.0022572601801462006,0.056844827965593786,9.788745597570326,-0.3452007984287343
1560000119126217728,0.004443817058822297,0.3678395948914037,-0.0022572601801462006,0.0820172947423139,9.801376256345414,-0.3703302111342346
1560000119136114176,0.00020103955496794668,0.37209242777331397,-0.005429806445996277,0.05808583872518896,9.789367900285145,-0.3703302111342346
1560000119146136832,-0.0008596547630394663,0.37209242777331397,-0.006487321983511263,0.05109533295035362,9.76855676883934,-0.3440915101292499
1560000119156160000,0.0023224281909827726,0.36358676200949347,-0.005429806445996277,0.04974586150436934,9.744238363931045,-0.30584627687120786
1560000119166182400,-0.0008596547630394663,0.3667764015428432,-0.004372291139611212,0.037629441033141815,9.719921012314853,-0.25667903063669273
1560000119176205568,0.0012617339888877088,0.36146034556853834,-0.003314775602096226,0.025511707368802487,9.701817464194493,-0.22636044529862928
1560000119186228736,0.0023224281909827726,0.35614431933806756,-0.006487321983511263,0.013393269255313103,9.689656460471044,-0.2140665773116585
1560000119196251648,0.003383122624902535,0.36358676200949347,-0.005429806445996277,0.023360837511329086,9.699659039478336,-0.22417843885214683
1560000119206274816,0.003383122624902535,0.36252356866093294,-0.006487321983511263,0.043024902498232445,9.71182020012423,-0.24412715586303924
1560000119216297216,0.004443817058822297,0.35614431933806756,-0.004372291139611212,0.07938032506467121,9.723981240049715,-0.2810088360874915
1560000119226319872,0.004443817058822297,0.35614431933806756,-0.00014222933624614964,0.09849342750502961,9.744792726660485,-0.3441266842828798
1560000119236342784,0.006565205463012425,0.3529547095485519,-0.004372291139611212,0.10791051505582006,9.767758926496475,-0.4137796179449132
1560000119246365952,0.006565205463012425,0.3508282931075968,-0.004372291139611212,0.09579261860960908,9.77991938783453,-0.45065953386540897
1560000119256388608,0.0023224281909827726,0.3497650700152022,-0.008602353058541234,0.09606963566359165,9.785860195516761,-0.48753687369349585
1560000119266411776,0.00020103955496794668,0.35401790289711244,-0.006487321983511263,0.10818699167111294,9.785860195516761,-0.5244151831445485
1560000119276434432,0.0023224281909827726,0.345512266877126,-0.006487321983511263,0.08717486215477194,9.785860195516761,-0.5052784819625191
1560000119286457600,-0.0029810433990542923,0.34870187666664165,-0.004372291139611212,0.078028781862145,9.778288881535524,-0.4692109044230691
1560000119296480256,-0.0029810433990542923,0.3529547095485519,-0.004372291139611212,0.10226234212153387,9.753970200519076,-0.4077500241023865
1560000119306503168,-0.004041737717061705,0.35508112598950703,-0.005429806445996277,0.0747881980667973,9.738298618576579,-0.35502743629168787
1560000119316526336,-0.004041737717061705,0.35401790289711244,-0.007544837521026249,0.033054887401004915,9.726138025280342,-0.3099545927785044
1560000119326548992,-0.0029810433990542923,0.3518914864561573,-0.005429806445996277,0.04517274899507882,9.713977600101313,-0.2976613144464392
1560000119336572160,0.0012617339888877088,0.3508282931075968,-0.0022572601801462006,0.05109533295035362,9.701817150969287,-0.2916529958630001
